"task","id","group","session","trial","condition","trialxcondition","RT","ACC","liking"
"pav",100,"control","second",1,"CSminus",1,0.3342723,1,89.56044
"pav",100,"control","second",2,"CSplus",1,0.4199233,1,59.34066
"pav",100,"control","second",3,"CSminus",2,0.2910164,1,89.56044
"pav",100,"control","second",4,"CSplus",2,0.3646661,1,59.34066
"pav",100,"control","second",5,"CSplus",3,0.4597159,1,59.34066
"pav",100,"control","second",6,"CSminus",3,0.3056092,1,89.56044
"pav",100,"control","second",7,"CSplus",4,0.4978054,1,59.34066
"pav",100,"control","second",8,"CSminus",4,0.2420313,1,89.56044
"pav",100,"control","second",9,"CSminus",5,0.2920713,1,89.56044
"pav",100,"control","second",10,"CSplus",5,0.281965,1,59.34066
"pav",100,"control","second",11,"CSminus",6,0.3879149,1,89.56044
"pav",100,"control","second",12,"CSplus",6,0.5057978,1,59.34066
"pav",100,"control","second",13,"CSplus",7,0.5084935,1,59.34066
"pav",100,"control","second",14,"CSminus",7,0.5533945,1,89.56044
"pav",100,"control","second",15,"CSplus",8,0.3515404,1,59.34066
"pav",100,"control","second",16,"CSminus",8,0.2834894,1,89.56044
"pav",100,"control","second",17,"CSminus",9,0.366843,1,89.56044
"pav",100,"control","second",18,"CSplus",9,0.4654166,1,59.34066
"pav",100,"control","second",19,"CSminus",10,0.2628457,1,89.56044
"pav",100,"control","second",20,"CSplus",10,0.446262,1,59.34066
"pav",100,"control","second",21,"CSminus",11,0.4181785,1,89.56044
"pav",100,"control","second",22,"CSplus",11,0.451209,1,59.34066
"pav",100,"control","second",23,"CSminus",12,0.2560897,1,89.56044
"pav",100,"control","second",24,"CSplus",12,0.358109,1,59.34066
"pav",100,"control","second",25,"CSminus",13,0.2875506,1,89.56044
"pav",100,"control","second",26,"CSplus",13,0.3627148,1,59.34066
"pav",100,"control","second",27,"CSminus",14,0.3724946,1,89.56044
"pav",100,"control","second",28,"CSplus",14,0.3990213,1,59.34066
"pav",100,"control","second",29,"CSplus",15,0.3121949,1,59.34066
"pav",100,"control","second",30,"CSminus",15,0.3650542,1,89.56044
"pav",100,"control","second",31,"CSplus",16,0.3630034,1,59.34066
"pav",100,"control","second",32,"CSminus",16,0.371204,1,89.56044
"pav",100,"control","second",33,"CSplus",17,0.9943268,1,59.34066
"pav",100,"control","second",34,"CSminus",17,0.3122571,1,89.56044
"pav",100,"control","second",35,"CSminus",18,0.2481342,1,89.56044
"pav",100,"control","second",36,"CSplus",18,0.2857651,1,59.34066
"pav",100,"control","second",37,"CSplus",19,0.5315983,1,59.34066
"pav",100,"control","second",38,"CSminus",19,0.2609713,1,89.56044
"pav",100,"control","second",39,"CSplus",20,0.3377728,1,59.34066
"pav",100,"control","second",40,"CSminus",20,0.2724539,1,89.56044
"pav",102,"control","second",1,"CSplus",1,0.4529798,1,76.92308
"pav",102,"control","second",2,"CSminus",1,0.5851755,1,76.0989
"pav",102,"control","second",3,"CSplus",2,0.3871594,1,76.92308
"pav",102,"control","second",4,"CSminus",2,0.4472258,1,76.0989
"pav",102,"control","second",5,"CSminus",3,0.4511677,1,76.0989
"pav",102,"control","second",6,"CSplus",3,0.4786419,1,76.92308
"pav",102,"control","second",7,"CSminus",4,0.3891011,1,76.0989
"pav",102,"control","second",8,"CSplus",4,0.3907202,1,76.92308
"pav",102,"control","second",9,"CSplus",5,0.4301316,1,76.92308
"pav",102,"control","second",10,"CSminus",5,0.5283444,1,76.0989
"pav",102,"control","second",11,"CSminus",6,0.4892778,1,76.0989
"pav",102,"control","second",12,"CSplus",6,0.426065,1,76.92308
"pav",102,"control","second",13,"CSplus",7,0.503777,1,76.92308
"pav",102,"control","second",14,"CSminus",7,0.4610297,1,76.0989
"pav",102,"control","second",15,"CSplus",8,0.4701434,1,76.92308
"pav",102,"control","second",16,"CSminus",8,0.5255043,1,76.0989
"pav",102,"control","second",17,"CSplus",9,0.4573585,1,76.92308
"pav",102,"control","second",18,"CSminus",9,0.769044,1,76.0989
"pav",102,"control","second",19,"CSplus",10,0.4410116,1,76.92308
"pav",102,"control","second",20,"CSminus",10,0.854895,1,76.0989
"pav",102,"control","second",21,"CSplus",11,0.4443581,1,76.92308
"pav",102,"control","second",22,"CSminus",11,0.9673324,1,76.0989
"pav",102,"control","second",23,"CSplus",12,0.6012903,1,76.92308
"pav",102,"control","second",24,"CSminus",12,0.6298351,1,76.0989
"pav",102,"control","second",25,"CSplus",13,0.6287295,1,76.92308
"pav",102,"control","second",26,"CSminus",13,0.7714367,1,76.0989
"pav",102,"control","second",27,"CSminus",14,0.6384468,1,76.0989
"pav",102,"control","second",28,"CSplus",14,0.6313653,1,76.92308
"pav",102,"control","second",29,"CSplus",15,0.6026293,1,76.92308
"pav",102,"control","second",30,"CSminus",15,0.8857222,1,76.0989
"pav",102,"control","second",31,"CSminus",16,0.6349082,1,76.0989
"pav",102,"control","second",32,"CSplus",16,0.5372448,1,76.92308
"pav",102,"control","second",33,"CSplus",17,0.6944672,1,76.92308
"pav",102,"control","second",34,"CSminus",17,0.8793989,1,76.0989
"pav",102,"control","second",35,"CSminus",18,0.5643909,1,76.0989
"pav",102,"control","second",36,"CSplus",18,0.6362597,1,76.92308
"pav",102,"control","second",37,"CSminus",19,0.8445757,1,76.0989
"pav",102,"control","second",38,"CSplus",19,0.5570903,1,76.92308
"pav",102,"control","second",39,"CSminus",20,0.6853378,1,76.0989
"pav",102,"control","second",40,"CSplus",20,0.4990641,1,76.92308
"pav",105,"control","second",1,"CSplus",1,0.5813469,1,54.3956
"pav",105,"control","second",2,"CSminus",1,0.603148,1,59.61538
"pav",105,"control","second",3,"CSminus",2,0.4441615,1,59.61538
"pav",105,"control","second",4,"CSplus",2,0.516413,1,54.3956
"pav",105,"control","second",5,"CSminus",3,0.6884604,1,59.61538
"pav",105,"control","second",6,"CSplus",3,0.5131912,1,54.3956
"pav",105,"control","second",7,"CSplus",4,0.4348005,1,54.3956
"pav",105,"control","second",8,"CSminus",4,0.4967144,1,59.61538
"pav",105,"control","second",9,"CSplus",5,0,0,54.3956
"pav",105,"control","second",10,"CSminus",5,0.4330217,1,59.61538
"pav",105,"control","second",11,"CSplus",6,0.4558353,1,54.3956
"pav",105,"control","second",12,"CSminus",6,0.6236006,1,59.61538
"pav",105,"control","second",13,"CSminus",7,0.7476124,1,59.61538
"pav",105,"control","second",14,"CSplus",7,0.4596736,1,54.3956
"pav",105,"control","second",15,"CSplus",8,0.4723705,1,54.3956
"pav",105,"control","second",16,"CSminus",8,0.5211926,1,59.61538
"pav",105,"control","second",17,"CSplus",9,0.3969412,1,54.3956
"pav",105,"control","second",18,"CSminus",9,0.797915,1,59.61538
"pav",105,"control","second",19,"CSplus",10,0.3418193,1,54.3956
"pav",105,"control","second",20,"CSminus",10,0.4519384,1,59.61538
"pav",105,"control","second",21,"CSplus",11,0.3184411,1,54.3956
"pav",105,"control","second",22,"CSminus",11,0.6997776,1,59.61538
"pav",105,"control","second",23,"CSminus",12,0.8833683,1,59.61538
"pav",105,"control","second",24,"CSplus",12,0.4464997,1,54.3956
"pav",105,"control","second",25,"CSminus",13,0.7766676,1,59.61538
"pav",105,"control","second",26,"CSplus",13,0.5522321,1,54.3956
"pav",105,"control","second",27,"CSplus",14,0,0,54.3956
"pav",105,"control","second",28,"CSminus",14,0.3947381,1,59.61538
"pav",105,"control","second",29,"CSminus",15,0.7211617,1,59.61538
"pav",105,"control","second",30,"CSplus",15,0,0,54.3956
"pav",105,"control","second",31,"CSplus",16,0.7785541,1,54.3956
"pav",105,"control","second",32,"CSminus",16,0.5057688,1,59.61538
"pav",105,"control","second",33,"CSminus",17,0.5537556,1,59.61538
"pav",105,"control","second",34,"CSplus",17,0.8431763,1,54.3956
"pav",105,"control","second",35,"CSplus",18,0.4101141,1,54.3956
"pav",105,"control","second",36,"CSminus",18,0.4291386,1,59.61538
"pav",105,"control","second",37,"CSminus",19,0.6216797,1,59.61538
"pav",105,"control","second",38,"CSplus",19,0.684601,1,54.3956
"pav",105,"control","second",39,"CSminus",20,0.848268,1,59.61538
"pav",105,"control","second",40,"CSplus",20,0.685765,1,54.3956
"pav",106,"control","second",1,"CSplus",1,0.5067776,1,50
"pav",106,"control","second",2,"CSminus",1,0.529678,1,50
"pav",106,"control","second",3,"CSplus",2,0.7699043,1,50
"pav",106,"control","second",4,"CSminus",2,0.677015,1,50
"pav",106,"control","second",5,"CSminus",3,0.5473664,1,50
"pav",106,"control","second",6,"CSplus",3,0.4983991,1,50
"pav",106,"control","second",7,"CSminus",4,0.3950654,1,50
"pav",106,"control","second",8,"CSplus",4,0.7534966,1,50
"pav",106,"control","second",9,"CSplus",5,0.5221831,1,50
"pav",106,"control","second",10,"CSminus",5,0.6113689,1,50
"pav",106,"control","second",11,"CSplus",6,0.6519946,1,50
"pav",106,"control","second",12,"CSminus",6,0.9111837,1,50
"pav",106,"control","second",13,"CSplus",7,0.5195264,1,50
"pav",106,"control","second",14,"CSminus",7,0.484179,1,50
"pav",106,"control","second",15,"CSminus",8,0.6141599,1,50
"pav",106,"control","second",16,"CSplus",8,0.8075315,1,50
"pav",106,"control","second",17,"CSplus",9,0.6540608,1,50
"pav",106,"control","second",18,"CSminus",9,0.6018347,1,50
"pav",106,"control","second",19,"CSminus",10,0.3364013,1,50
"pav",106,"control","second",20,"CSplus",10,0.5277103,1,50
"pav",106,"control","second",21,"CSminus",11,0.8535995,1,50
"pav",106,"control","second",22,"CSplus",11,0.9720311,1,50
"pav",106,"control","second",23,"CSminus",12,0,0,50
"pav",106,"control","second",24,"CSplus",12,0.5186325,1,50
"pav",106,"control","second",25,"CSplus",13,0.7889261,1,50
"pav",106,"control","second",26,"CSminus",13,0.8096115,1,50
"pav",106,"control","second",27,"CSminus",14,0.9852944,1,50
"pav",106,"control","second",28,"CSplus",14,0,0,50
"pav",106,"control","second",29,"CSplus",15,0,0,50
"pav",106,"control","second",30,"CSminus",15,0.5979631,1,50
"pav",106,"control","second",31,"CSminus",16,0.8769467,1,50
"pav",106,"control","second",32,"CSplus",16,0.791439,1,50
"pav",106,"control","second",33,"CSminus",17,0,0,50
"pav",106,"control","second",34,"CSplus",17,0,0,50
"pav",106,"control","second",35,"CSplus",18,0.7205457,1,50
"pav",106,"control","second",36,"CSminus",18,0,0,50
"pav",106,"control","second",37,"CSplus",19,0,0,50
"pav",106,"control","second",38,"CSminus",19,0.4641611,1,50
"pav",106,"control","second",39,"CSminus",20,0.4867192,1,50
"pav",106,"control","second",40,"CSplus",20,0.5329886,1,50
"pav",107,"control","second",1,"CSminus",1,0.5577846,1,70.05495
"pav",107,"control","second",2,"CSplus",1,0.5656744,1,54.3956
"pav",107,"control","second",3,"CSplus",2,0.8308454,1,54.3956
"pav",107,"control","second",4,"CSminus",2,0.5321176,1,70.05495
"pav",107,"control","second",5,"CSplus",3,0.4894025,1,54.3956
"pav",107,"control","second",6,"CSminus",3,0.3898597,1,70.05495
"pav",107,"control","second",7,"CSplus",4,0.534458,1,54.3956
"pav",107,"control","second",8,"CSminus",4,0.5145672,1,70.05495
"pav",107,"control","second",9,"CSminus",5,0.4603098,1,70.05495
"pav",107,"control","second",10,"CSplus",5,0.5382058,1,54.3956
"pav",107,"control","second",11,"CSminus",6,0.4983982,1,70.05495
"pav",107,"control","second",12,"CSplus",6,0.4653005,1,54.3956
"pav",107,"control","second",13,"CSplus",7,0.646977,1,54.3956
"pav",107,"control","second",14,"CSminus",7,0.5231739,1,70.05495
"pav",107,"control","second",15,"CSminus",8,0.7071456,1,70.05495
"pav",107,"control","second",16,"CSplus",8,0.4675046,1,54.3956
"pav",107,"control","second",17,"CSplus",9,0.3551915,1,54.3956
"pav",107,"control","second",18,"CSminus",9,0.5534976,1,70.05495
"pav",107,"control","second",19,"CSminus",10,0.4663794,1,70.05495
"pav",107,"control","second",20,"CSplus",10,0.7743569,1,54.3956
"pav",107,"control","second",21,"CSplus",11,0.5187416,1,54.3956
"pav",107,"control","second",22,"CSminus",11,0.3700378,1,70.05495
"pav",107,"control","second",23,"CSminus",12,0.5848361,1,70.05495
"pav",107,"control","second",24,"CSplus",12,0,0,54.3956
"pav",107,"control","second",25,"CSminus",13,0.3413989,1,70.05495
"pav",107,"control","second",26,"CSplus",13,0.5011351,1,54.3956
"pav",107,"control","second",27,"CSplus",14,0.5701432,1,54.3956
"pav",107,"control","second",28,"CSminus",14,0.4559988,1,70.05495
"pav",107,"control","second",29,"CSplus",15,0.293383,1,54.3956
"pav",107,"control","second",30,"CSminus",15,0.4850405,1,70.05495
"pav",107,"control","second",31,"CSplus",16,0.7936024,1,54.3956
"pav",107,"control","second",32,"CSminus",16,0.5055385,1,70.05495
"pav",107,"control","second",33,"CSplus",17,0.5159794,1,54.3956
"pav",107,"control","second",34,"CSminus",17,0.4656279,1,70.05495
"pav",107,"control","second",35,"CSplus",18,0.4455607,1,54.3956
"pav",107,"control","second",36,"CSminus",18,0.5938091,1,70.05495
"pav",107,"control","second",37,"CSplus",19,0.5176639,1,54.3956
"pav",107,"control","second",38,"CSminus",19,0.5880519,1,70.05495
"pav",107,"control","second",39,"CSplus",20,0.7857434,1,54.3956
"pav",107,"control","second",40,"CSminus",20,0.6007056,1,70.05495
"pav",108,"control","second",1,"CSminus",1,0.2782509,1,51.92308
"pav",108,"control","second",2,"CSplus",1,0.3038978,1,84.89011
"pav",108,"control","second",3,"CSminus",2,0.379308,1,51.92308
"pav",108,"control","second",4,"CSplus",2,0.3969776,1,84.89011
"pav",108,"control","second",5,"CSminus",3,0.4180232,1,51.92308
"pav",108,"control","second",6,"CSplus",3,0.2886154,1,84.89011
"pav",108,"control","second",7,"CSplus",4,0.3212906,1,84.89011
"pav",108,"control","second",8,"CSminus",4,0.3681198,1,51.92308
"pav",108,"control","second",9,"CSplus",5,0.3633264,1,84.89011
"pav",108,"control","second",10,"CSminus",5,0.3198447,1,51.92308
"pav",108,"control","second",11,"CSplus",6,0.2498254,1,84.89011
"pav",108,"control","second",12,"CSminus",6,0.7724983,1,51.92308
"pav",108,"control","second",13,"CSplus",7,0.5260012,1,84.89011
"pav",108,"control","second",14,"CSminus",7,0.6291443,1,51.92308
"pav",108,"control","second",15,"CSplus",8,0.2939698,1,84.89011
"pav",108,"control","second",16,"CSminus",8,0.2669575,1,51.92308
"pav",108,"control","second",17,"CSplus",9,0.4955654,1,84.89011
"pav",108,"control","second",18,"CSminus",9,0.3244822,1,51.92308
"pav",108,"control","second",19,"CSplus",10,0.3654911,1,84.89011
"pav",108,"control","second",20,"CSminus",10,0.330666,1,51.92308
"pav",108,"control","second",21,"CSplus",11,0.3537441,1,84.89011
"pav",108,"control","second",22,"CSminus",11,0.301526,1,51.92308
"pav",108,"control","second",23,"CSminus",12,0.6123699,1,51.92308
"pav",108,"control","second",24,"CSplus",12,0.2929935,1,84.89011
"pav",108,"control","second",25,"CSplus",13,0.3732455,1,84.89011
"pav",108,"control","second",26,"CSminus",13,0.3072302,1,51.92308
"pav",108,"control","second",27,"CSminus",14,0.3888665,1,51.92308
"pav",108,"control","second",28,"CSplus",14,0.3537589,1,84.89011
"pav",108,"control","second",29,"CSminus",15,0.3784064,1,51.92308
"pav",108,"control","second",30,"CSplus",15,0.3850107,1,84.89011
"pav",108,"control","second",31,"CSminus",16,0.39236,1,51.92308
"pav",108,"control","second",32,"CSplus",16,0.3409561,1,84.89011
"pav",108,"control","second",33,"CSplus",17,0.4020587,1,84.89011
"pav",108,"control","second",34,"CSminus",17,0.3558623,1,51.92308
"pav",108,"control","second",35,"CSplus",18,0.477788,1,84.89011
"pav",108,"control","second",36,"CSminus",18,0.3291784,1,51.92308
"pav",108,"control","second",37,"CSplus",19,0.2721592,1,84.89011
"pav",108,"control","second",38,"CSminus",19,0.3789773,1,51.92308
"pav",108,"control","second",39,"CSplus",20,0.3772861,1,84.89011
"pav",108,"control","second",40,"CSminus",20,0.2865698,1,51.92308
"pav",109,"control","second",1,"CSminus",1,0.3162868,1,51.37363
"pav",109,"control","second",2,"CSplus",1,0.3366753,1,55.49451
"pav",109,"control","second",3,"CSminus",2,0.5721321,1,51.37363
"pav",109,"control","second",4,"CSplus",2,0.6594195,1,55.49451
"pav",109,"control","second",5,"CSplus",3,0.3133197,1,55.49451
"pav",109,"control","second",6,"CSminus",3,0.5111467,1,51.37363
"pav",109,"control","second",7,"CSminus",4,0.3790402,1,51.37363
"pav",109,"control","second",8,"CSplus",4,0.6693311,1,55.49451
"pav",109,"control","second",9,"CSminus",5,0.3237965,1,51.37363
"pav",109,"control","second",10,"CSplus",5,0.311327,1,55.49451
"pav",109,"control","second",11,"CSplus",6,0.5974814,1,55.49451
"pav",109,"control","second",12,"CSminus",6,0.8892849,1,51.37363
"pav",109,"control","second",13,"CSminus",7,0.5318754,1,51.37363
"pav",109,"control","second",14,"CSplus",7,0.474258,1,55.49451
"pav",109,"control","second",15,"CSminus",8,0.5025603,1,51.37363
"pav",109,"control","second",16,"CSplus",8,0.4711273,1,55.49451
"pav",109,"control","second",17,"CSminus",9,0.3192347,1,51.37363
"pav",109,"control","second",18,"CSplus",9,0.4893114,1,55.49451
"pav",109,"control","second",19,"CSplus",10,0.3840212,1,55.49451
"pav",109,"control","second",20,"CSminus",10,0.4652809,1,51.37363
"pav",109,"control","second",21,"CSplus",11,0.5811143,1,55.49451
"pav",109,"control","second",22,"CSminus",11,0.6010781,1,51.37363
"pav",109,"control","second",23,"CSplus",12,0.4616149,1,55.49451
"pav",109,"control","second",24,"CSminus",12,0.419269,1,51.37363
"pav",109,"control","second",25,"CSminus",13,0.3999543,1,51.37363
"pav",109,"control","second",26,"CSplus",13,0.4383174,1,55.49451
"pav",109,"control","second",27,"CSplus",14,0.452466,1,55.49451
"pav",109,"control","second",28,"CSminus",14,0.4637016,1,51.37363
"pav",109,"control","second",29,"CSplus",15,0.4459567,1,55.49451
"pav",109,"control","second",30,"CSminus",15,0.4939165,1,51.37363
"pav",109,"control","second",31,"CSplus",16,0.4843121,1,55.49451
"pav",109,"control","second",32,"CSminus",16,0.3624393,1,51.37363
"pav",109,"control","second",33,"CSplus",17,0.5072363,1,55.49451
"pav",109,"control","second",34,"CSminus",17,0.4724141,1,51.37363
"pav",109,"control","second",35,"CSminus",18,0.5515092,1,51.37363
"pav",109,"control","second",36,"CSplus",18,0.307303,1,55.49451
"pav",109,"control","second",37,"CSminus",19,0.4361024,1,51.37363
"pav",109,"control","second",38,"CSplus",19,0.4708492,1,55.49451
"pav",109,"control","second",39,"CSplus",20,0.5865357,1,55.49451
"pav",109,"control","second",40,"CSminus",20,0.6974512,1,51.37363
"pav",110,"control","second",1,"CSplus",1,0.5472446,1,56.04396
"pav",110,"control","second",2,"CSminus",1,0.5285968,1,40.38462
"pav",110,"control","second",3,"CSplus",2,0.5166992,1,56.04396
"pav",110,"control","second",4,"CSminus",2,0.3522006,1,40.38462
"pav",110,"control","second",5,"CSminus",3,0.3130993,1,40.38462
"pav",110,"control","second",6,"CSplus",3,0.3804588,1,56.04396
"pav",110,"control","second",7,"CSplus",4,0.2239427,1,56.04396
"pav",110,"control","second",8,"CSminus",4,0.2473297,1,40.38462
"pav",110,"control","second",9,"CSplus",5,0.2341857,1,56.04396
"pav",110,"control","second",10,"CSminus",5,0.2669909,1,40.38462
"pav",110,"control","second",11,"CSplus",6,0.4041803,1,56.04396
"pav",110,"control","second",12,"CSminus",6,0.2452664,1,40.38462
"pav",110,"control","second",13,"CSminus",7,0.2294237,1,40.38462
"pav",110,"control","second",14,"CSplus",7,0.2898362,1,56.04396
"pav",110,"control","second",15,"CSminus",8,0.2373545,1,40.38462
"pav",110,"control","second",16,"CSplus",8,0.6290406,1,56.04396
"pav",110,"control","second",17,"CSplus",9,0.4509224,1,56.04396
"pav",110,"control","second",18,"CSminus",9,0.3006869,1,40.38462
"pav",110,"control","second",19,"CSminus",10,0.392351,1,40.38462
"pav",110,"control","second",20,"CSplus",10,0.3896511,1,56.04396
"pav",110,"control","second",21,"CSminus",11,0,0,40.38462
"pav",110,"control","second",22,"CSplus",11,0.2497255,1,56.04396
"pav",110,"control","second",23,"CSplus",12,0.9979127,1,56.04396
"pav",110,"control","second",24,"CSminus",12,0.4180113,1,40.38462
"pav",110,"control","second",25,"CSminus",13,0.299207,1,40.38462
"pav",110,"control","second",26,"CSplus",13,0.08559838,1,56.04396
"pav",110,"control","second",27,"CSplus",14,0.1635062,1,56.04396
"pav",110,"control","second",28,"CSminus",14,0.2974828,1,40.38462
"pav",110,"control","second",29,"CSplus",15,0.9685251,1,56.04396
"pav",110,"control","second",30,"CSminus",15,0.3123482,1,40.38462
"pav",110,"control","second",31,"CSplus",16,0.3505575,1,56.04396
"pav",110,"control","second",32,"CSminus",16,0.281966,1,40.38462
"pav",110,"control","second",33,"CSminus",17,0.2380717,1,40.38462
"pav",110,"control","second",34,"CSplus",17,0.3346282,1,56.04396
"pav",110,"control","second",35,"CSplus",18,0.2193533,1,56.04396
"pav",110,"control","second",36,"CSminus",18,0.2616122,1,40.38462
"pav",110,"control","second",37,"CSminus",19,0.2647689,1,40.38462
"pav",110,"control","second",38,"CSplus",19,0.2384848,1,56.04396
"pav",110,"control","second",39,"CSplus",20,0.3408649,1,56.04396
"pav",110,"control","second",40,"CSminus",20,0.3143672,1,40.38462
"pav",112,"control","second",1,"CSplus",1,0.3409414,1,84.89011
"pav",112,"control","second",2,"CSminus",1,0.3941179,1,47.25275
"pav",112,"control","second",3,"CSminus",2,0.453678,1,47.25275
"pav",112,"control","second",4,"CSplus",2,0.3644374,1,84.89011
"pav",112,"control","second",5,"CSplus",3,0.315146,1,84.89011
"pav",112,"control","second",6,"CSminus",3,0.3404346,1,47.25275
"pav",112,"control","second",7,"CSminus",4,0.2593388,1,47.25275
"pav",112,"control","second",8,"CSplus",4,0.2502668,1,84.89011
"pav",112,"control","second",9,"CSminus",5,0.254385,1,47.25275
"pav",112,"control","second",10,"CSplus",5,0.2511546,1,84.89011
"pav",112,"control","second",11,"CSplus",6,0.290349,1,84.89011
"pav",112,"control","second",12,"CSminus",6,0.2351053,1,47.25275
"pav",112,"control","second",13,"CSminus",7,0.3381949,1,47.25275
"pav",112,"control","second",14,"CSplus",7,0.2752671,1,84.89011
"pav",112,"control","second",15,"CSminus",8,0.2775164,1,47.25275
"pav",112,"control","second",16,"CSplus",8,0.3495823,1,84.89011
"pav",112,"control","second",17,"CSminus",9,0.3728933,1,47.25275
"pav",112,"control","second",18,"CSplus",9,0.2986746,1,84.89011
"pav",112,"control","second",19,"CSminus",10,0.3487644,1,47.25275
"pav",112,"control","second",20,"CSplus",10,0.3137912,1,84.89011
"pav",112,"control","second",21,"CSplus",11,0.3106675,1,84.89011
"pav",112,"control","second",22,"CSminus",11,0.301415,1,47.25275
"pav",112,"control","second",23,"CSminus",12,0.2762793,1,47.25275
"pav",112,"control","second",24,"CSplus",12,0.2657682,1,84.89011
"pav",112,"control","second",25,"CSplus",13,0.3523368,1,84.89011
"pav",112,"control","second",26,"CSminus",13,0.2650517,1,47.25275
"pav",112,"control","second",27,"CSplus",14,0.3085459,1,84.89011
"pav",112,"control","second",28,"CSminus",14,0.3150699,1,47.25275
"pav",112,"control","second",29,"CSplus",15,0.2290187,1,84.89011
"pav",112,"control","second",30,"CSminus",15,0.3393518,1,47.25275
"pav",112,"control","second",31,"CSminus",16,0.3612118,1,47.25275
"pav",112,"control","second",32,"CSplus",16,0.3399769,1,84.89011
"pav",112,"control","second",33,"CSminus",17,0.2420649,1,47.25275
"pav",112,"control","second",34,"CSplus",17,0.3807972,1,84.89011
"pav",112,"control","second",35,"CSminus",18,0.2341293,1,47.25275
"pav",112,"control","second",36,"CSplus",18,0.3675559,1,84.89011
"pav",112,"control","second",37,"CSplus",19,0.3905886,1,84.89011
"pav",112,"control","second",38,"CSminus",19,0.2868863,1,47.25275
"pav",112,"control","second",39,"CSplus",20,0.2410405,1,84.89011
"pav",112,"control","second",40,"CSminus",20,0.2377039,1,47.25275
"pav",113,"control","second",1,"CSplus",1,0.5634265,1,50
"pav",113,"control","second",2,"CSminus",1,0.4539604,1,50
"pav",113,"control","second",3,"CSplus",2,0.4019595,1,50
"pav",113,"control","second",4,"CSminus",2,0.7125939,1,50
"pav",113,"control","second",5,"CSminus",3,0.6261619,1,50
"pav",113,"control","second",6,"CSplus",3,0.549312,1,50
"pav",113,"control","second",7,"CSplus",4,0.4847526,1,50
"pav",113,"control","second",8,"CSminus",4,0.5573014,1,50
"pav",113,"control","second",9,"CSminus",5,0.5049686,1,50
"pav",113,"control","second",10,"CSplus",5,0.4885648,1,50
"pav",113,"control","second",11,"CSplus",6,0.5903487,1,50
"pav",113,"control","second",12,"CSminus",6,0.471073,1,50
"pav",113,"control","second",13,"CSplus",7,0.4434667,1,50
"pav",113,"control","second",14,"CSminus",7,0.5189423,1,50
"pav",113,"control","second",15,"CSminus",8,0.6014957,1,50
"pav",113,"control","second",16,"CSplus",8,0.5973255,1,50
"pav",113,"control","second",17,"CSminus",9,0.4717084,1,50
"pav",113,"control","second",18,"CSplus",9,0.544299,1,50
"pav",113,"control","second",19,"CSminus",10,0.6047983,1,50
"pav",113,"control","second",20,"CSplus",10,0.6111651,1,50
"pav",113,"control","second",21,"CSminus",11,0.531386,1,50
"pav",113,"control","second",22,"CSplus",11,0.5080967,1,50
"pav",113,"control","second",23,"CSminus",12,0.5104236,1,50
"pav",113,"control","second",24,"CSplus",12,0.4698684,1,50
"pav",113,"control","second",25,"CSminus",13,0.3992417,1,50
"pav",113,"control","second",26,"CSplus",13,0.6259316,1,50
"pav",113,"control","second",27,"CSplus",14,0.650261,1,50
"pav",113,"control","second",28,"CSminus",14,0.8443717,1,50
"pav",113,"control","second",29,"CSplus",15,0.5450139,1,50
"pav",113,"control","second",30,"CSminus",15,0.5813707,1,50
"pav",113,"control","second",31,"CSplus",16,0.7461351,1,50
"pav",113,"control","second",32,"CSminus",16,0.482891,1,50
"pav",113,"control","second",33,"CSplus",17,0.4490096,1,50
"pav",113,"control","second",34,"CSminus",17,0.6516421,1,50
"pav",113,"control","second",35,"CSminus",18,0.4002468,1,50
"pav",113,"control","second",36,"CSplus",18,0.624243,1,50
"pav",113,"control","second",37,"CSplus",19,0.4751701,1,50
"pav",113,"control","second",38,"CSminus",19,0.4464027,1,50
"pav",113,"control","second",39,"CSminus",20,0.6280751,1,50
"pav",113,"control","second",40,"CSplus",20,0.5480977,1,50
"pav",114,"control","second",1,"CSminus",1,0.8647785,1,15.10989
"pav",114,"control","second",2,"CSplus",1,0.0002883406,1,14.01099
"pav",114,"control","second",3,"CSminus",2,0.0002453621,1,15.10989
"pav",114,"control","second",4,"CSplus",2,0.0003098298,1,14.01099
"pav",114,"control","second",5,"CSminus",3,0.0002758319,1,15.10989
"pav",114,"control","second",6,"CSplus",3,0.09462959,1,14.01099
"pav",114,"control","second",7,"CSplus",4,0.06602389,1,14.01099
"pav",114,"control","second",8,"CSminus",4,0.0001805737,1,15.10989
"pav",114,"control","second",9,"CSplus",5,0.0185529,1,14.01099
"pav",114,"control","second",10,"CSminus",5,0.0002751904,1,15.10989
"pav",114,"control","second",11,"CSminus",6,0.0001853847,1,15.10989
"pav",114,"control","second",12,"CSplus",6,0.03289424,1,14.01099
"pav",114,"control","second",13,"CSminus",7,0.0001853847,1,15.10989
"pav",114,"control","second",14,"CSplus",7,0.0001658199,1,14.01099
"pav",114,"control","second",15,"CSplus",8,0.0001751212,1,14.01099
"pav",114,"control","second",16,"CSminus",8,0.0002155338,1,15.10989
"pav",114,"control","second",17,"CSminus",9,0.0002206655,1,15.10989
"pav",114,"control","second",18,"CSplus",9,0.0002514561,1,14.01099
"pav",114,"control","second",19,"CSplus",10,0.0002068739,1,14.01099
"pav",114,"control","second",20,"CSminus",10,0.0002039873,1,15.10989
"pav",114,"control","second",21,"CSminus",11,0.0002155338,1,15.10989
"pav",114,"control","second",22,"CSplus",11,0.04325654,1,14.01099
"pav",114,"control","second",23,"CSplus",12,0.1255872,1,14.01099
"pav",114,"control","second",24,"CSminus",12,0.0003021321,1,15.10989
"pav",114,"control","second",25,"CSplus",13,0.9759792,1,14.01099
"pav",114,"control","second",26,"CSminus",13,0.0003871269,1,15.10989
"pav",114,"control","second",27,"CSplus",14,0.0201569,1,14.01099
"pav",114,"control","second",28,"CSminus",14,0.03110742,1,15.10989
"pav",114,"control","second",29,"CSminus",15,0.1087307,1,15.10989
"pav",114,"control","second",30,"CSplus",15,0.5221937,1,14.01099
"pav",114,"control","second",31,"CSminus",16,0.04512225,1,15.10989
"pav",114,"control","second",32,"CSplus",16,0.0002931516,1,14.01099
"pav",114,"control","second",33,"CSplus",17,0.1242639,1,14.01099
"pav",114,"control","second",34,"CSminus",17,0.1321729,1,15.10989
"pav",114,"control","second",35,"CSplus",18,0.05308257,1,14.01099
"pav",114,"control","second",36,"CSminus",18,0.8078218,1,15.10989
"pav",114,"control","second",37,"CSplus",19,0.0002399096,1,14.01099
"pav",114,"control","second",38,"CSminus",19,0.0002171374,1,15.10989
"pav",114,"control","second",39,"CSminus",20,0.0003698072,1,15.10989
"pav",114,"control","second",40,"CSplus",20,0.0002107227,1,14.01099
"pav",115,"control","second",1,"CSminus",1,0.2889073,1,50
"pav",115,"control","second",2,"CSplus",1,0.3904744,1,73.35165
"pav",115,"control","second",3,"CSplus",2,0.316002,1,73.35165
"pav",115,"control","second",4,"CSminus",2,0.3921525,1,50
"pav",115,"control","second",5,"CSminus",3,0.5549691,1,50
"pav",115,"control","second",6,"CSplus",3,0.3828355,1,73.35165
"pav",115,"control","second",7,"CSplus",4,0.2911483,1,73.35165
"pav",115,"control","second",8,"CSminus",4,0.2979337,1,50
"pav",115,"control","second",9,"CSminus",5,0.3075593,1,50
"pav",115,"control","second",10,"CSplus",5,0.2783289,1,73.35165
"pav",115,"control","second",11,"CSminus",6,0.291962,1,50
"pav",115,"control","second",12,"CSplus",6,0.3288348,1,73.35165
"pav",115,"control","second",13,"CSminus",7,0.3018813,1,50
"pav",115,"control","second",14,"CSplus",7,0.2868068,1,73.35165
"pav",115,"control","second",15,"CSplus",8,0,0,73.35165
"pav",115,"control","second",16,"CSminus",8,0.3035655,1,50
"pav",115,"control","second",17,"CSminus",9,0.2682755,1,50
"pav",115,"control","second",18,"CSplus",9,0.2614301,1,73.35165
"pav",115,"control","second",19,"CSplus",10,0.4065884,1,73.35165
"pav",115,"control","second",20,"CSminus",10,0.5355981,1,50
"pav",115,"control","second",21,"CSminus",11,0.32206,1,50
"pav",115,"control","second",22,"CSplus",11,0.2902397,1,73.35165
"pav",115,"control","second",23,"CSminus",12,0.3114879,1,50
"pav",115,"control","second",24,"CSplus",12,0.3168169,1,73.35165
"pav",115,"control","second",25,"CSplus",13,0.329364,1,73.35165
"pav",115,"control","second",26,"CSminus",13,0.6467535,1,50
"pav",115,"control","second",27,"CSminus",14,0.3578314,1,50
"pav",115,"control","second",28,"CSplus",14,0.3403662,1,73.35165
"pav",115,"control","second",29,"CSplus",15,0.6104272,1,73.35165
"pav",115,"control","second",30,"CSminus",15,0.3885022,1,50
"pav",115,"control","second",31,"CSplus",16,0.3691196,1,73.35165
"pav",115,"control","second",32,"CSminus",16,0.3748098,1,50
"pav",115,"control","second",33,"CSminus",17,0.3168721,1,50
"pav",115,"control","second",34,"CSplus",17,0.2672443,1,73.35165
"pav",115,"control","second",35,"CSplus",18,0.5855235,1,73.35165
"pav",115,"control","second",36,"CSminus",18,0.3679114,1,50
"pav",115,"control","second",37,"CSminus",19,0.3370334,1,50
"pav",115,"control","second",38,"CSplus",19,0.3124771,1,73.35165
"pav",115,"control","second",39,"CSplus",20,0.3281998,1,73.35165
"pav",115,"control","second",40,"CSminus",20,0.7063712,1,50
"pav",116,"control","second",1,"CSminus",1,0.3626952,1,8.241758
"pav",116,"control","second",2,"CSplus",1,0.3864919,1,84.61538
"pav",116,"control","second",3,"CSminus",2,0.4696394,1,8.241758
"pav",116,"control","second",4,"CSplus",2,0.3179952,1,84.61538
"pav",116,"control","second",5,"CSminus",3,0.3408329,1,8.241758
"pav",116,"control","second",6,"CSplus",3,0.3340225,1,84.61538
"pav",116,"control","second",7,"CSminus",4,0.3054241,1,8.241758
"pav",116,"control","second",8,"CSplus",4,0.3155977,1,84.61538
"pav",116,"control","second",9,"CSminus",5,0.4752333,1,8.241758
"pav",116,"control","second",10,"CSplus",5,0.3102608,1,84.61538
"pav",116,"control","second",11,"CSplus",6,0.2474583,1,84.61538
"pav",116,"control","second",12,"CSminus",6,0.3675624,1,8.241758
"pav",116,"control","second",13,"CSminus",7,0.3403787,1,8.241758
"pav",116,"control","second",14,"CSplus",7,0.301025,1,84.61538
"pav",116,"control","second",15,"CSplus",8,0.448881,1,84.61538
"pav",116,"control","second",16,"CSminus",8,0.4072478,1,8.241758
"pav",116,"control","second",17,"CSplus",9,0.3118073,1,84.61538
"pav",116,"control","second",18,"CSminus",9,0.419441,1,8.241758
"pav",116,"control","second",19,"CSplus",10,0.3000198,1,84.61538
"pav",116,"control","second",20,"CSminus",10,0.4378568,1,8.241758
"pav",116,"control","second",21,"CSplus",11,0.2615843,1,84.61538
"pav",116,"control","second",22,"CSminus",11,0.3813711,1,8.241758
"pav",116,"control","second",23,"CSminus",12,0.4372743,1,8.241758
"pav",116,"control","second",24,"CSplus",12,0.5017372,1,84.61538
"pav",116,"control","second",25,"CSminus",13,0.3077234,1,8.241758
"pav",116,"control","second",26,"CSplus",13,0.384752,1,84.61538
"pav",116,"control","second",27,"CSminus",14,0.5025689,1,8.241758
"pav",116,"control","second",28,"CSplus",14,0.3065739,1,84.61538
"pav",116,"control","second",29,"CSplus",15,0.3968015,1,84.61538
"pav",116,"control","second",30,"CSminus",15,0.3393527,1,8.241758
"pav",116,"control","second",31,"CSplus",16,0.2903731,1,84.61538
"pav",116,"control","second",32,"CSminus",16,0.3638861,1,8.241758
"pav",116,"control","second",33,"CSplus",17,0.2069438,1,84.61538
"pav",116,"control","second",34,"CSminus",17,0.3516791,1,8.241758
"pav",116,"control","second",35,"CSplus",18,0.3848982,1,84.61538
"pav",116,"control","second",36,"CSminus",18,0.3752949,1,8.241758
"pav",116,"control","second",37,"CSplus",19,0.2972156,1,84.61538
"pav",116,"control","second",38,"CSminus",19,0.5079363,1,8.241758
"pav",116,"control","second",39,"CSplus",20,0.3278894,1,84.61538
"pav",116,"control","second",40,"CSminus",20,0.328714,1,8.241758
"pav",118,"control","second",1,"CSplus",1,0.4014626,1,31.31868
"pav",118,"control","second",2,"CSminus",1,0.5835105,1,55.21978
"pav",118,"control","second",3,"CSplus",2,0.4840514,1,31.31868
"pav",118,"control","second",4,"CSminus",2,0.5431997,1,55.21978
"pav",118,"control","second",5,"CSplus",3,0.5011617,1,31.31868
"pav",118,"control","second",6,"CSminus",3,0.4526795,1,55.21978
"pav",118,"control","second",7,"CSminus",4,0.6652865,1,55.21978
"pav",118,"control","second",8,"CSplus",4,0.6687819,1,31.31868
"pav",118,"control","second",9,"CSminus",5,0.5939897,1,55.21978
"pav",118,"control","second",10,"CSplus",5,0.6525565,1,31.31868
"pav",118,"control","second",11,"CSminus",6,0.5217334,1,55.21978
"pav",118,"control","second",12,"CSplus",6,0.5359177,1,31.31868
"pav",118,"control","second",13,"CSminus",7,0.4505155,1,55.21978
"pav",118,"control","second",14,"CSplus",7,0.5697359,1,31.31868
"pav",118,"control","second",15,"CSminus",8,0.4470085,1,55.21978
"pav",118,"control","second",16,"CSplus",8,0.5039964,1,31.31868
"pav",118,"control","second",17,"CSminus",9,0.4010595,1,55.21978
"pav",118,"control","second",18,"CSplus",9,0.5238169,1,31.31868
"pav",118,"control","second",19,"CSminus",10,0.4194883,1,55.21978
"pav",118,"control","second",20,"CSplus",10,0.497962,1,31.31868
"pav",118,"control","second",21,"CSplus",11,0.4400097,1,31.31868
"pav",118,"control","second",22,"CSminus",11,0.3915586,1,55.21978
"pav",118,"control","second",23,"CSplus",12,0.737535,1,31.31868
"pav",118,"control","second",24,"CSminus",12,0.4365564,1,55.21978
"pav",118,"control","second",25,"CSplus",13,0.5236999,1,31.31868
"pav",118,"control","second",26,"CSminus",13,0.5191631,1,55.21978
"pav",118,"control","second",27,"CSplus",14,0.5092895,1,31.31868
"pav",118,"control","second",28,"CSminus",14,0.4427796,1,55.21978
"pav",118,"control","second",29,"CSplus",15,0.3748399,1,31.31868
"pav",118,"control","second",30,"CSminus",15,0.4834622,1,55.21978
"pav",118,"control","second",31,"CSminus",16,0.3219998,1,55.21978
"pav",118,"control","second",32,"CSplus",16,0.6653715,1,31.31868
"pav",118,"control","second",33,"CSminus",17,0.5946007,1,55.21978
"pav",118,"control","second",34,"CSplus",17,0.3872351,1,31.31868
"pav",118,"control","second",35,"CSplus",18,0.38627,1,31.31868
"pav",118,"control","second",36,"CSminus",18,0.4100866,1,55.21978
"pav",118,"control","second",37,"CSminus",19,0.3473733,1,55.21978
"pav",118,"control","second",38,"CSplus",19,0.6118726,1,31.31868
"pav",118,"control","second",39,"CSminus",20,0.5583029,1,55.21978
"pav",118,"control","second",40,"CSplus",20,0.3913482,1,31.31868
"pav",119,"control","second",1,"CSminus",1,0.2962223,1,40.38462
"pav",119,"control","second",2,"CSplus",1,0.3260802,1,56.59341
"pav",119,"control","second",3,"CSplus",2,0.4825007,1,56.59341
"pav",119,"control","second",4,"CSminus",2,0.4996265,1,40.38462
"pav",119,"control","second",5,"CSminus",3,0.3075621,1,40.38462
"pav",119,"control","second",6,"CSplus",3,0.3133183,1,56.59341
"pav",119,"control","second",7,"CSplus",4,0.4080807,1,56.59341
"pav",119,"control","second",8,"CSminus",4,0.3769296,1,40.38462
"pav",119,"control","second",9,"CSminus",5,0.3475378,1,40.38462
"pav",119,"control","second",10,"CSplus",5,0.5409419,1,56.59341
"pav",119,"control","second",11,"CSplus",6,0.2906685,1,56.59341
"pav",119,"control","second",12,"CSminus",6,0.4106841,1,40.38462
"pav",119,"control","second",13,"CSplus",7,0.3849287,1,56.59341
"pav",119,"control","second",14,"CSminus",7,0.4110404,1,40.38462
"pav",119,"control","second",15,"CSplus",8,0.6588634,1,56.59341
"pav",119,"control","second",16,"CSminus",8,0.2749607,1,40.38462
"pav",119,"control","second",17,"CSminus",9,0.3144373,1,40.38462
"pav",119,"control","second",18,"CSplus",9,0.3428914,1,56.59341
"pav",119,"control","second",19,"CSplus",10,0.6123063,1,56.59341
"pav",119,"control","second",20,"CSminus",10,0.6639643,1,40.38462
"pav",119,"control","second",21,"CSplus",11,0.4956979,1,56.59341
"pav",119,"control","second",22,"CSminus",11,0.5878245,1,40.38462
"pav",119,"control","second",23,"CSplus",12,0.3987086,1,56.59341
"pav",119,"control","second",24,"CSminus",12,0.3771352,1,40.38462
"pav",119,"control","second",25,"CSminus",13,0.7111288,1,40.38462
"pav",119,"control","second",26,"CSplus",13,0.3556459,1,56.59341
"pav",119,"control","second",27,"CSplus",14,0.2205316,1,56.59341
"pav",119,"control","second",28,"CSminus",14,0.2743289,1,40.38462
"pav",119,"control","second",29,"CSplus",15,0.3044696,1,56.59341
"pav",119,"control","second",30,"CSminus",15,0.2120052,1,40.38462
"pav",119,"control","second",31,"CSplus",16,0.3586322,1,56.59341
"pav",119,"control","second",32,"CSminus",16,0.3281643,1,40.38462
"pav",119,"control","second",33,"CSplus",17,0.4021408,1,56.59341
"pav",119,"control","second",34,"CSminus",17,0,0,40.38462
"pav",119,"control","second",35,"CSplus",18,0.3304534,1,56.59341
"pav",119,"control","second",36,"CSminus",18,0.4293818,1,40.38462
"pav",119,"control","second",37,"CSminus",19,0.4963785,1,40.38462
"pav",119,"control","second",38,"CSplus",19,0.4278727,1,56.59341
"pav",119,"control","second",39,"CSminus",20,0.2248781,1,40.38462
"pav",119,"control","second",40,"CSplus",20,0.465618,1,56.59341
"pav",120,"control","second",1,"CSminus",1,0.5662662,1,49.72527
"pav",120,"control","second",2,"CSplus",1,0.3583349,1,76.64835
"pav",120,"control","second",3,"CSminus",2,0.2931543,1,49.72527
"pav",120,"control","second",4,"CSplus",2,0.3696209,1,76.64835
"pav",120,"control","second",5,"CSminus",3,0.4319578,1,49.72527
"pav",120,"control","second",6,"CSplus",3,0.3078735,1,76.64835
"pav",120,"control","second",7,"CSplus",4,0.3467724,1,76.64835
"pav",120,"control","second",8,"CSminus",4,0.5119759,1,49.72527
"pav",120,"control","second",9,"CSplus",5,0.275885,1,76.64835
"pav",120,"control","second",10,"CSminus",5,0.276453,1,49.72527
"pav",120,"control","second",11,"CSminus",6,0.3314515,1,49.72527
"pav",120,"control","second",12,"CSplus",6,0.583865,1,76.64835
"pav",120,"control","second",13,"CSminus",7,0.3039208,1,49.72527
"pav",120,"control","second",14,"CSplus",7,0.2567845,1,76.64835
"pav",120,"control","second",15,"CSplus",8,0.5688594,1,76.64835
"pav",120,"control","second",16,"CSminus",8,0.3028787,1,49.72527
"pav",120,"control","second",17,"CSminus",9,0.8907109,1,49.72527
"pav",120,"control","second",18,"CSplus",9,0.3692367,1,76.64835
"pav",120,"control","second",19,"CSplus",10,0.4434415,1,76.64835
"pav",120,"control","second",20,"CSminus",10,0.754854,1,49.72527
"pav",120,"control","second",21,"CSminus",11,0.4086375,1,49.72527
"pav",120,"control","second",22,"CSplus",11,0.2725657,1,76.64835
"pav",120,"control","second",23,"CSminus",12,0.2921928,1,49.72527
"pav",120,"control","second",24,"CSplus",12,0.3777862,1,76.64835
"pav",120,"control","second",25,"CSminus",13,0.3190493,1,49.72527
"pav",120,"control","second",26,"CSplus",13,0.3085368,1,76.64835
"pav",120,"control","second",27,"CSplus",14,0.45335,1,76.64835
"pav",120,"control","second",28,"CSminus",14,0.2980786,1,49.72527
"pav",120,"control","second",29,"CSplus",15,0.2616257,1,76.64835
"pav",120,"control","second",30,"CSminus",15,0.282369,1,49.72527
"pav",120,"control","second",31,"CSplus",16,0.4478721,1,76.64835
"pav",120,"control","second",32,"CSminus",16,0.4331391,1,49.72527
"pav",120,"control","second",33,"CSplus",17,0.3751087,1,76.64835
"pav",120,"control","second",34,"CSminus",17,0.3577303,1,49.72527
"pav",120,"control","second",35,"CSminus",18,0.3358757,1,49.72527
"pav",120,"control","second",36,"CSplus",18,0.433592,1,76.64835
"pav",120,"control","second",37,"CSminus",19,0.4056697,1,49.72527
"pav",120,"control","second",38,"CSplus",19,0.3395141,1,76.64835
"pav",120,"control","second",39,"CSplus",20,0.3209894,1,76.64835
"pav",120,"control","second",40,"CSminus",20,0.4169099,1,49.72527
"pav",121,"control","second",1,"CSminus",1,0.2877348,1,76.37363
"pav",121,"control","second",2,"CSplus",1,0.2581695,1,50.27473
"pav",121,"control","second",3,"CSminus",2,0.3476618,1,76.37363
"pav",121,"control","second",4,"CSplus",2,0.2739668,1,50.27473
"pav",121,"control","second",5,"CSminus",3,0.3004434,1,76.37363
"pav",121,"control","second",6,"CSplus",3,0.4351478,1,50.27473
"pav",121,"control","second",7,"CSplus",4,0.289189,1,50.27473
"pav",121,"control","second",8,"CSminus",4,0.2706639,1,76.37363
"pav",121,"control","second",9,"CSminus",5,0.3174127,1,76.37363
"pav",121,"control","second",10,"CSplus",5,0.2325602,1,50.27473
"pav",121,"control","second",11,"CSminus",6,0.2139587,1,76.37363
"pav",121,"control","second",12,"CSplus",6,0.2556585,1,50.27473
"pav",121,"control","second",13,"CSminus",7,0.2390414,1,76.37363
"pav",121,"control","second",14,"CSplus",7,0.430269,1,50.27473
"pav",121,"control","second",15,"CSminus",8,0.3696621,1,76.37363
"pav",121,"control","second",16,"CSplus",8,0.392405,1,50.27473
"pav",121,"control","second",17,"CSminus",9,0.2689617,1,76.37363
"pav",121,"control","second",18,"CSplus",9,0.393577,1,50.27473
"pav",121,"control","second",19,"CSminus",10,0.4137895,1,76.37363
"pav",121,"control","second",20,"CSplus",10,0.3255918,1,50.27473
"pav",121,"control","second",21,"CSplus",11,0.2662556,1,50.27473
"pav",121,"control","second",22,"CSminus",11,0.2181758,1,76.37363
"pav",121,"control","second",23,"CSplus",12,0.4289126,1,50.27473
"pav",121,"control","second",24,"CSminus",12,0.6299402,1,76.37363
"pav",121,"control","second",25,"CSplus",13,0.3090318,1,50.27473
"pav",121,"control","second",26,"CSminus",13,0.3612184,1,76.37363
"pav",121,"control","second",27,"CSminus",14,0.2705753,1,76.37363
"pav",121,"control","second",28,"CSplus",14,0.2808636,1,50.27473
"pav",121,"control","second",29,"CSplus",15,0.2688793,1,50.27473
"pav",121,"control","second",30,"CSminus",15,0.2543268,1,76.37363
"pav",121,"control","second",31,"CSminus",16,0.3096771,1,76.37363
"pav",121,"control","second",32,"CSplus",16,0.3848984,1,50.27473
"pav",121,"control","second",33,"CSplus",17,0.2667143,1,50.27473
"pav",121,"control","second",34,"CSminus",17,0.2895762,1,76.37363
"pav",121,"control","second",35,"CSminus",18,0.2304889,1,76.37363
"pav",121,"control","second",36,"CSplus",18,0.219901,1,50.27473
"pav",121,"control","second",37,"CSminus",19,0,0,76.37363
"pav",121,"control","second",38,"CSplus",19,0.2973149,1,50.27473
"pav",121,"control","second",39,"CSplus",20,0.4854331,1,50.27473
"pav",121,"control","second",40,"CSminus",20,0.2655349,1,76.37363
"pav",122,"control","second",1,"CSplus",1,0.2794945,1,90.65934
"pav",122,"control","second",2,"CSminus",1,0.2349104,1,38.73626
"pav",122,"control","second",3,"CSplus",2,0.3040232,1,90.65934
"pav",122,"control","second",4,"CSminus",2,0.4446157,1,38.73626
"pav",122,"control","second",5,"CSminus",3,0.4134777,1,38.73626
"pav",122,"control","second",6,"CSplus",3,0.2418726,1,90.65934
"pav",122,"control","second",7,"CSminus",4,0.3058655,1,38.73626
"pav",122,"control","second",8,"CSplus",4,0.2639861,1,90.65934
"pav",122,"control","second",9,"CSminus",5,0.3092117,1,38.73626
"pav",122,"control","second",10,"CSplus",5,0.2866776,1,90.65934
"pav",122,"control","second",11,"CSminus",6,0.2557102,1,38.73626
"pav",122,"control","second",12,"CSplus",6,0.3244401,1,90.65934
"pav",122,"control","second",13,"CSplus",7,0.2537076,1,90.65934
"pav",122,"control","second",14,"CSminus",7,0.5989443,1,38.73626
"pav",122,"control","second",15,"CSplus",8,0.2486814,1,90.65934
"pav",122,"control","second",16,"CSminus",8,0.3622423,1,38.73626
"pav",122,"control","second",17,"CSplus",9,0.2169625,1,90.65934
"pav",122,"control","second",18,"CSminus",9,0.5171542,1,38.73626
"pav",122,"control","second",19,"CSplus",10,0.2699428,1,90.65934
"pav",122,"control","second",20,"CSminus",10,0.5459557,1,38.73626
"pav",122,"control","second",21,"CSminus",11,0.2456703,1,38.73626
"pav",122,"control","second",22,"CSplus",11,0.3436398,1,90.65934
"pav",122,"control","second",23,"CSminus",12,0.460738,1,38.73626
"pav",122,"control","second",24,"CSplus",12,0.2252701,1,90.65934
"pav",122,"control","second",25,"CSminus",13,0.5887764,1,38.73626
"pav",122,"control","second",26,"CSplus",13,0.2436215,1,90.65934
"pav",122,"control","second",27,"CSplus",14,0.2649926,1,90.65934
"pav",122,"control","second",28,"CSminus",14,0.3573043,1,38.73626
"pav",122,"control","second",29,"CSminus",15,0.4062792,1,38.73626
"pav",122,"control","second",30,"CSplus",15,0.2111711,1,90.65934
"pav",122,"control","second",31,"CSminus",16,0.4819666,1,38.73626
"pav",122,"control","second",32,"CSplus",16,0.2433345,1,90.65934
"pav",122,"control","second",33,"CSminus",17,0.3224352,1,38.73626
"pav",122,"control","second",34,"CSplus",17,0.2377851,1,90.65934
"pav",122,"control","second",35,"CSplus",18,0.2426253,1,90.65934
"pav",122,"control","second",36,"CSminus",18,0.343676,1,38.73626
"pav",122,"control","second",37,"CSplus",19,0.3120001,1,90.65934
"pav",122,"control","second",38,"CSminus",19,0.3246444,1,38.73626
"pav",122,"control","second",39,"CSminus",20,0.4252957,1,38.73626
"pav",122,"control","second",40,"CSplus",20,0.2386107,1,90.65934
"pav",123,"control","second",1,"CSplus",1,0.31996,1,80.21978
"pav",123,"control","second",2,"CSminus",1,0.2688591,1,34.34066
"pav",123,"control","second",3,"CSminus",2,0.5101632,1,34.34066
"pav",123,"control","second",4,"CSplus",2,0.3627303,1,80.21978
"pav",123,"control","second",5,"CSminus",3,0.385157,1,34.34066
"pav",123,"control","second",6,"CSplus",3,0.3015974,1,80.21978
"pav",123,"control","second",7,"CSminus",4,0.3218744,1,34.34066
"pav",123,"control","second",8,"CSplus",4,0.3053706,1,80.21978
"pav",123,"control","second",9,"CSplus",5,0.2934795,1,80.21978
"pav",123,"control","second",10,"CSminus",5,0.247988,1,34.34066
"pav",123,"control","second",11,"CSplus",6,0.3564278,1,80.21978
"pav",123,"control","second",12,"CSminus",6,0.2716812,1,34.34066
"pav",123,"control","second",13,"CSminus",7,0,0,34.34066
"pav",123,"control","second",14,"CSplus",7,0.3501382,1,80.21978
"pav",123,"control","second",15,"CSminus",8,0.2391151,1,34.34066
"pav",123,"control","second",16,"CSplus",8,0.2792946,1,80.21978
"pav",123,"control","second",17,"CSminus",9,0.3993217,1,34.34066
"pav",123,"control","second",18,"CSplus",9,0.3404747,1,80.21978
"pav",123,"control","second",19,"CSplus",10,0.3543398,1,80.21978
"pav",123,"control","second",20,"CSminus",10,0.3851371,1,34.34066
"pav",123,"control","second",21,"CSplus",11,0.381293,1,80.21978
"pav",123,"control","second",22,"CSminus",11,0.2782381,1,34.34066
"pav",123,"control","second",23,"CSminus",12,0.3685209,1,34.34066
"pav",123,"control","second",24,"CSplus",12,0.7768721,1,80.21978
"pav",123,"control","second",25,"CSminus",13,0.3263888,1,34.34066
"pav",123,"control","second",26,"CSplus",13,0.3355908,1,80.21978
"pav",123,"control","second",27,"CSplus",14,0.2915628,1,80.21978
"pav",123,"control","second",28,"CSminus",14,0.3217664,1,34.34066
"pav",123,"control","second",29,"CSminus",15,0.6207353,1,34.34066
"pav",123,"control","second",30,"CSplus",15,0.4128007,1,80.21978
"pav",123,"control","second",31,"CSplus",16,0.2787102,1,80.21978
"pav",123,"control","second",32,"CSminus",16,0.3254167,1,34.34066
"pav",123,"control","second",33,"CSplus",17,0.4558293,1,80.21978
"pav",123,"control","second",34,"CSminus",17,0.3565363,1,34.34066
"pav",123,"control","second",35,"CSplus",18,0.3686945,1,80.21978
"pav",123,"control","second",36,"CSminus",18,0.4723951,1,34.34066
"pav",123,"control","second",37,"CSplus",19,0,0,80.21978
"pav",123,"control","second",38,"CSminus",19,0.3280663,1,34.34066
"pav",123,"control","second",39,"CSminus",20,0.3367544,1,34.34066
"pav",123,"control","second",40,"CSplus",20,0.3054671,1,80.21978
"pav",124,"control","second",1,"CSminus",1,0.4088088,1,45.05495
"pav",124,"control","second",2,"CSplus",1,0.5941705,1,91.75824
"pav",124,"control","second",3,"CSplus",2,0.629142,1,91.75824
"pav",124,"control","second",4,"CSminus",2,0.3833804,1,45.05495
"pav",124,"control","second",5,"CSplus",3,0.9896862,1,91.75824
"pav",124,"control","second",6,"CSminus",3,0.5797429,1,45.05495
"pav",124,"control","second",7,"CSplus",4,0,0,91.75824
"pav",124,"control","second",8,"CSminus",4,0,0,45.05495
"pav",124,"control","second",9,"CSplus",5,0.7798477,1,91.75824
"pav",124,"control","second",10,"CSminus",5,0.3565494,1,45.05495
"pav",124,"control","second",11,"CSminus",6,0.8014735,1,45.05495
"pav",124,"control","second",12,"CSplus",6,0.5493037,1,91.75824
"pav",124,"control","second",13,"CSminus",7,0.392724,1,45.05495
"pav",124,"control","second",14,"CSplus",7,0,0,91.75824
"pav",124,"control","second",15,"CSplus",8,0.9851407,1,91.75824
"pav",124,"control","second",16,"CSminus",8,0.8422827,1,45.05495
"pav",124,"control","second",17,"CSplus",9,0.6923528,1,91.75824
"pav",124,"control","second",18,"CSminus",9,0.5389363,1,45.05495
"pav",124,"control","second",19,"CSminus",10,0.3913192,1,45.05495
"pav",124,"control","second",20,"CSplus",10,0,0,91.75824
"pav",124,"control","second",21,"CSminus",11,0.5999392,1,45.05495
"pav",124,"control","second",22,"CSplus",11,0.4142129,1,91.75824
"pav",124,"control","second",23,"CSplus",12,0.3243676,1,91.75824
"pav",124,"control","second",24,"CSminus",12,0.4963996,1,45.05495
"pav",124,"control","second",25,"CSplus",13,0.6794821,1,91.75824
"pav",124,"control","second",26,"CSminus",13,0.4601657,1,45.05495
"pav",124,"control","second",27,"CSminus",14,0,0,45.05495
"pav",124,"control","second",28,"CSplus",14,0.7806932,1,91.75824
"pav",124,"control","second",29,"CSplus",15,0.5583974,1,91.75824
"pav",124,"control","second",30,"CSminus",15,0,0,45.05495
"pav",124,"control","second",31,"CSplus",16,0.6515735,1,91.75824
"pav",124,"control","second",32,"CSminus",16,0.8765768,1,45.05495
"pav",124,"control","second",33,"CSplus",17,0.3208845,1,91.75824
"pav",124,"control","second",34,"CSminus",17,0,0,45.05495
"pav",124,"control","second",35,"CSplus",18,0.3617979,1,91.75824
"pav",124,"control","second",36,"CSminus",18,0.7963726,1,45.05495
"pav",124,"control","second",37,"CSminus",19,0.6824236,1,45.05495
"pav",124,"control","second",38,"CSplus",19,0.3518398,1,91.75824
"pav",124,"control","second",39,"CSplus",20,0,0,91.75824
"pav",124,"control","second",40,"CSminus",20,0,0,45.05495
"pav",125,"control","second",1,"CSminus",1,0.3861731,1,50
"pav",125,"control","second",2,"CSplus",1,0.4094371,1,45.05495
"pav",125,"control","second",3,"CSplus",2,0.3515691,1,45.05495
"pav",125,"control","second",4,"CSminus",2,0.4213847,1,50
"pav",125,"control","second",5,"CSplus",3,0.4303119,1,45.05495
"pav",125,"control","second",6,"CSminus",3,0.4685839,1,50
"pav",125,"control","second",7,"CSplus",4,0.4000861,1,45.05495
"pav",125,"control","second",8,"CSminus",4,0.3992407,1,50
"pav",125,"control","second",9,"CSplus",5,0.4505892,1,45.05495
"pav",125,"control","second",10,"CSminus",5,0.6804881,1,50
"pav",125,"control","second",11,"CSminus",6,0.5744054,1,50
"pav",125,"control","second",12,"CSplus",6,0.6047951,1,45.05495
"pav",125,"control","second",13,"CSminus",7,0.8497818,1,50
"pav",125,"control","second",14,"CSplus",7,0.4089335,1,45.05495
"pav",125,"control","second",15,"CSplus",8,0.4573993,1,45.05495
"pav",125,"control","second",16,"CSminus",8,0.6160075,1,50
"pav",125,"control","second",17,"CSminus",9,0.8847217,1,50
"pav",125,"control","second",18,"CSplus",9,0.3958672,1,45.05495
"pav",125,"control","second",19,"CSplus",10,0.5977845,1,45.05495
"pav",125,"control","second",20,"CSminus",10,0.4056226,1,50
"pav",125,"control","second",21,"CSminus",11,0.8448303,1,50
"pav",125,"control","second",22,"CSplus",11,0.5468921,1,45.05495
"pav",125,"control","second",23,"CSplus",12,0.5337803,1,45.05495
"pav",125,"control","second",24,"CSminus",12,0.5859723,1,50
"pav",125,"control","second",25,"CSminus",13,0.4031649,1,50
"pav",125,"control","second",26,"CSplus",13,0.9715774,1,45.05495
"pav",125,"control","second",27,"CSminus",14,0.5028046,1,50
"pav",125,"control","second",28,"CSplus",14,0.4823044,1,45.05495
"pav",125,"control","second",29,"CSplus",15,0.7197508,1,45.05495
"pav",125,"control","second",30,"CSminus",15,0.3988613,1,50
"pav",125,"control","second",31,"CSplus",16,0.8847165,1,45.05495
"pav",125,"control","second",32,"CSminus",16,0,0,50
"pav",125,"control","second",33,"CSminus",17,0.451756,1,50
"pav",125,"control","second",34,"CSplus",17,0.8405537,1,45.05495
"pav",125,"control","second",35,"CSplus",18,0.5134289,1,45.05495
"pav",125,"control","second",36,"CSminus",18,0.530605,1,50
"pav",125,"control","second",37,"CSminus",19,0.6809964,1,50
"pav",125,"control","second",38,"CSplus",19,0,0,45.05495
"pav",125,"control","second",39,"CSminus",20,0.556947,1,50
"pav",125,"control","second",40,"CSplus",20,0.9753393,1,45.05495
"pav",126,"control","second",1,"CSminus",1,0.3022196,1,44.78022
"pav",126,"control","second",2,"CSplus",1,0.3359751,1,57.96703
"pav",126,"control","second",3,"CSminus",2,0.3034464,1,44.78022
"pav",126,"control","second",4,"CSplus",2,0.4339621,1,57.96703
"pav",126,"control","second",5,"CSplus",3,0.3948898,1,57.96703
"pav",126,"control","second",6,"CSminus",3,0.3449769,1,44.78022
"pav",126,"control","second",7,"CSplus",4,0.2867316,1,57.96703
"pav",126,"control","second",8,"CSminus",4,0.2883529,1,44.78022
"pav",126,"control","second",9,"CSminus",5,0.2961247,1,44.78022
"pav",126,"control","second",10,"CSplus",5,0.4054272,1,57.96703
"pav",126,"control","second",11,"CSplus",6,0.297346,1,57.96703
"pav",126,"control","second",12,"CSminus",6,0.372122,1,44.78022
"pav",126,"control","second",13,"CSplus",7,0.3584289,1,57.96703
"pav",126,"control","second",14,"CSminus",7,0.6086261,1,44.78022
"pav",126,"control","second",15,"CSplus",8,0.5019077,1,57.96703
"pav",126,"control","second",16,"CSminus",8,0.4896871,1,44.78022
"pav",126,"control","second",17,"CSminus",9,0.2786308,1,44.78022
"pav",126,"control","second",18,"CSplus",9,0.554052,1,57.96703
"pav",126,"control","second",19,"CSplus",10,0.3131102,1,57.96703
"pav",126,"control","second",20,"CSminus",10,0.4121681,1,44.78022
"pav",126,"control","second",21,"CSminus",11,0.4731621,1,44.78022
"pav",126,"control","second",22,"CSplus",11,0.3413731,1,57.96703
"pav",126,"control","second",23,"CSplus",12,0.2893084,1,57.96703
"pav",126,"control","second",24,"CSminus",12,0.458382,1,44.78022
"pav",126,"control","second",25,"CSplus",13,0.3453185,1,57.96703
"pav",126,"control","second",26,"CSminus",13,0.3091539,1,44.78022
"pav",126,"control","second",27,"CSplus",14,0.4652598,1,57.96703
"pav",126,"control","second",28,"CSminus",14,0.3106534,1,44.78022
"pav",126,"control","second",29,"CSplus",15,0.3348461,1,57.96703
"pav",126,"control","second",30,"CSminus",15,0.7583151,1,44.78022
"pav",126,"control","second",31,"CSminus",16,0.2811999,1,44.78022
"pav",126,"control","second",32,"CSplus",16,0.3838995,1,57.96703
"pav",126,"control","second",33,"CSminus",17,0.3072635,1,44.78022
"pav",126,"control","second",34,"CSplus",17,0.310426,1,57.96703
"pav",126,"control","second",35,"CSplus",18,0.5051863,1,57.96703
"pav",126,"control","second",36,"CSminus",18,0.4859893,1,44.78022
"pav",126,"control","second",37,"CSplus",19,0.578842,1,57.96703
"pav",126,"control","second",38,"CSminus",19,0.4208642,1,44.78022
"pav",126,"control","second",39,"CSminus",20,0.3501651,1,44.78022
"pav",126,"control","second",40,"CSplus",20,0.3519516,1,57.96703
"pav",127,"control","second",1,"CSplus",1,0.2899882,1,68.68132
"pav",127,"control","second",2,"CSminus",1,0.3810259,1,39.83516
"pav",127,"control","second",3,"CSplus",2,0.3059069,1,68.68132
"pav",127,"control","second",4,"CSminus",2,0.3543761,1,39.83516
"pav",127,"control","second",5,"CSminus",3,0.3149932,1,39.83516
"pav",127,"control","second",6,"CSplus",3,0.3120261,1,68.68132
"pav",127,"control","second",7,"CSminus",4,0.4336275,1,39.83516
"pav",127,"control","second",8,"CSplus",4,0.3846008,1,68.68132
"pav",127,"control","second",9,"CSminus",5,0.8176388,1,39.83516
"pav",127,"control","second",10,"CSplus",5,0.3110245,1,68.68132
"pav",127,"control","second",11,"CSplus",6,0.3929774,1,68.68132
"pav",127,"control","second",12,"CSminus",6,0.2611937,1,39.83516
"pav",127,"control","second",13,"CSplus",7,0.2973596,1,68.68132
"pav",127,"control","second",14,"CSminus",7,0.390562,1,39.83516
"pav",127,"control","second",15,"CSplus",8,0.3159885,1,68.68132
"pav",127,"control","second",16,"CSminus",8,0.2904712,1,39.83516
"pav",127,"control","second",17,"CSminus",9,0.2597238,1,39.83516
"pav",127,"control","second",18,"CSplus",9,0.2537244,1,68.68132
"pav",127,"control","second",19,"CSminus",10,0.831346,1,39.83516
"pav",127,"control","second",20,"CSplus",10,0.4416465,1,68.68132
"pav",127,"control","second",21,"CSminus",11,0.3206003,1,39.83516
"pav",127,"control","second",22,"CSplus",11,0.3167024,1,68.68132
"pav",127,"control","second",23,"CSminus",12,0.3932266,1,39.83516
"pav",127,"control","second",24,"CSplus",12,0.2864528,1,68.68132
"pav",127,"control","second",25,"CSplus",13,0.2707522,1,68.68132
"pav",127,"control","second",26,"CSminus",13,0.4863629,1,39.83516
"pav",127,"control","second",27,"CSminus",14,0.2879945,1,39.83516
"pav",127,"control","second",28,"CSplus",14,0.2426684,1,68.68132
"pav",127,"control","second",29,"CSplus",15,0.7853522,1,68.68132
"pav",127,"control","second",30,"CSminus",15,0.3683547,1,39.83516
"pav",127,"control","second",31,"CSminus",16,0.3440492,1,39.83516
"pav",127,"control","second",32,"CSplus",16,0.3033628,1,68.68132
"pav",127,"control","second",33,"CSminus",17,0.3147011,1,39.83516
"pav",127,"control","second",34,"CSplus",17,0.2996638,1,68.68132
"pav",127,"control","second",35,"CSminus",18,0.3314074,1,39.83516
"pav",127,"control","second",36,"CSplus",18,0.2625632,1,68.68132
"pav",127,"control","second",37,"CSminus",19,0.3323744,1,39.83516
"pav",127,"control","second",38,"CSplus",19,0.4733334,1,68.68132
"pav",127,"control","second",39,"CSplus",20,0.2996481,1,68.68132
"pav",127,"control","second",40,"CSminus",20,0.3587343,1,39.83516
"pav",128,"control","second",1,"CSplus",1,0.2412891,1,78.02198
"pav",128,"control","second",2,"CSminus",1,0.3772412,1,50
"pav",128,"control","second",3,"CSminus",2,0.3424084,1,50
"pav",128,"control","second",4,"CSplus",2,0.3092037,1,78.02198
"pav",128,"control","second",5,"CSplus",3,0.3647473,1,78.02198
"pav",128,"control","second",6,"CSminus",3,0.3529664,1,50
"pav",128,"control","second",7,"CSminus",4,0.5760845,1,50
"pav",128,"control","second",8,"CSplus",4,0.474148,1,78.02198
"pav",128,"control","second",9,"CSplus",5,0.2924261,1,78.02198
"pav",128,"control","second",10,"CSminus",5,0.5929844,1,50
"pav",128,"control","second",11,"CSplus",6,0.4586574,1,78.02198
"pav",128,"control","second",12,"CSminus",6,0.3406505,1,50
"pav",128,"control","second",13,"CSminus",7,0.4668888,1,50
"pav",128,"control","second",14,"CSplus",7,0.3099664,1,78.02198
"pav",128,"control","second",15,"CSminus",8,0.4402001,1,50
"pav",128,"control","second",16,"CSplus",8,0.248293,1,78.02198
"pav",128,"control","second",17,"CSminus",9,0.3599712,1,50
"pav",128,"control","second",18,"CSplus",9,0.4557253,1,78.02198
"pav",128,"control","second",19,"CSplus",10,0.2706193,1,78.02198
"pav",128,"control","second",20,"CSminus",10,0.3320878,1,50
"pav",128,"control","second",21,"CSminus",11,0.3498447,1,50
"pav",128,"control","second",22,"CSplus",11,0.3409327,1,78.02198
"pav",128,"control","second",23,"CSplus",12,0.3559312,1,78.02198
"pav",128,"control","second",24,"CSminus",12,0.3500688,1,50
"pav",128,"control","second",25,"CSplus",13,0.4328393,1,78.02198
"pav",128,"control","second",26,"CSminus",13,0.3967916,1,50
"pav",128,"control","second",27,"CSplus",14,0.0001468965,1,78.02198
"pav",128,"control","second",28,"CSminus",14,0.3170101,1,50
"pav",128,"control","second",29,"CSplus",15,0.3716148,1,78.02198
"pav",128,"control","second",30,"CSminus",15,0.4086324,1,50
"pav",128,"control","second",31,"CSplus",16,0.5633187,1,78.02198
"pav",128,"control","second",32,"CSminus",16,0.4241477,1,50
"pav",128,"control","second",33,"CSplus",17,0.5132805,1,78.02198
"pav",128,"control","second",34,"CSminus",17,0.5348983,1,50
"pav",128,"control","second",35,"CSplus",18,0.4525596,1,78.02198
"pav",128,"control","second",36,"CSminus",18,0.6923413,1,50
"pav",128,"control","second",37,"CSplus",19,0.333635,1,78.02198
"pav",128,"control","second",38,"CSminus",19,0.3772389,1,50
"pav",128,"control","second",39,"CSminus",20,0.7198654,1,50
"pav",128,"control","second",40,"CSplus",20,0.000136633,1,78.02198
"pav",129,"control","second",1,"CSplus",1,0.4006428,1,59.34066
"pav",129,"control","second",2,"CSminus",1,0.5211376,1,33.51648
"pav",129,"control","second",3,"CSminus",2,0.5007605,1,33.51648
"pav",129,"control","second",4,"CSplus",2,0.4117859,1,59.34066
"pav",129,"control","second",5,"CSplus",3,0.3922635,1,59.34066
"pav",129,"control","second",6,"CSminus",3,0.3666575,1,33.51648
"pav",129,"control","second",7,"CSminus",4,0.4189027,1,33.51648
"pav",129,"control","second",8,"CSplus",4,0.3641345,1,59.34066
"pav",129,"control","second",9,"CSminus",5,0.3396212,1,33.51648
"pav",129,"control","second",10,"CSplus",5,0.2996364,1,59.34066
"pav",129,"control","second",11,"CSplus",6,0.5615778,1,59.34066
"pav",129,"control","second",12,"CSminus",6,0.4583577,1,33.51648
"pav",129,"control","second",13,"CSplus",7,0.6647829,1,59.34066
"pav",129,"control","second",14,"CSminus",7,0.4072869,1,33.51648
"pav",129,"control","second",15,"CSplus",8,0.3671225,1,59.34066
"pav",129,"control","second",16,"CSminus",8,0.6793065,1,33.51648
"pav",129,"control","second",17,"CSminus",9,0.3704973,1,33.51648
"pav",129,"control","second",18,"CSplus",9,0.46362,1,59.34066
"pav",129,"control","second",19,"CSplus",10,0.8127648,1,59.34066
"pav",129,"control","second",20,"CSminus",10,0.3043429,1,33.51648
"pav",129,"control","second",21,"CSminus",11,0.3181956,1,33.51648
"pav",129,"control","second",22,"CSplus",11,0.4597676,1,59.34066
"pav",129,"control","second",23,"CSplus",12,0.388933,1,59.34066
"pav",129,"control","second",24,"CSminus",12,0.8435916,1,33.51648
"pav",129,"control","second",25,"CSminus",13,0.7797471,1,33.51648
"pav",129,"control","second",26,"CSplus",13,0.4334838,1,59.34066
"pav",129,"control","second",27,"CSminus",14,0.5962287,1,33.51648
"pav",129,"control","second",28,"CSplus",14,0.3960107,1,59.34066
"pav",129,"control","second",29,"CSplus",15,0.590976,1,59.34066
"pav",129,"control","second",30,"CSminus",15,0.5031917,1,33.51648
"pav",129,"control","second",31,"CSminus",16,0,0,33.51648
"pav",129,"control","second",32,"CSplus",16,0.4685173,1,59.34066
"pav",129,"control","second",33,"CSplus",17,0.3507906,1,59.34066
"pav",129,"control","second",34,"CSminus",17,0.8684023,1,33.51648
"pav",129,"control","second",35,"CSminus",18,0.3267663,1,33.51648
"pav",129,"control","second",36,"CSplus",18,0.295556,1,59.34066
"pav",129,"control","second",37,"CSplus",19,0.4634558,1,59.34066
"pav",129,"control","second",38,"CSminus",19,0.3268347,1,33.51648
"pav",129,"control","second",39,"CSplus",20,0.3723804,1,59.34066
"pav",129,"control","second",40,"CSminus",20,0.5524685,1,33.51648
"pav",130,"control","second",1,"CSminus",1,0.4533815,1,70.05495
"pav",130,"control","second",2,"CSplus",1,0.5429612,1,90.38462
"pav",130,"control","second",3,"CSplus",2,0.5167983,1,90.38462
"pav",130,"control","second",4,"CSminus",2,0,0,70.05495
"pav",130,"control","second",5,"CSplus",3,0.6475046,1,90.38462
"pav",130,"control","second",6,"CSminus",3,0.6707296,1,70.05495
"pav",130,"control","second",7,"CSplus",4,0.9518139,1,90.38462
"pav",130,"control","second",8,"CSminus",4,0.7384942,1,70.05495
"pav",130,"control","second",9,"CSplus",5,0.384622,1,90.38462
"pav",130,"control","second",10,"CSminus",5,0,0,70.05495
"pav",130,"control","second",11,"CSminus",6,0.7586847,1,70.05495
"pav",130,"control","second",12,"CSplus",6,0.6130918,1,90.38462
"pav",130,"control","second",13,"CSplus",7,0.8254455,1,90.38462
"pav",130,"control","second",14,"CSminus",7,0.6867259,1,70.05495
"pav",130,"control","second",15,"CSminus",8,0.5466432,1,70.05495
"pav",130,"control","second",16,"CSplus",8,0.9416861,1,90.38462
"pav",130,"control","second",17,"CSplus",9,0.8432,1,90.38462
"pav",130,"control","second",18,"CSminus",9,0.8239393,1,70.05495
"pav",130,"control","second",19,"CSminus",10,0,0,70.05495
"pav",130,"control","second",20,"CSplus",10,0.7928541,1,90.38462
"pav",130,"control","second",21,"CSplus",11,0,0,90.38462
"pav",130,"control","second",22,"CSminus",11,0,0,70.05495
"pav",130,"control","second",23,"CSminus",12,0,0,70.05495
"pav",130,"control","second",24,"CSplus",12,0.6526701,1,90.38462
"pav",130,"control","second",25,"CSminus",13,0,0,70.05495
"pav",130,"control","second",26,"CSplus",13,0.7841593,1,90.38462
"pav",130,"control","second",27,"CSminus",14,0,0,70.05495
"pav",130,"control","second",28,"CSplus",14,0.6021073,1,90.38462
"pav",130,"control","second",29,"CSminus",15,0.8648637,1,70.05495
"pav",130,"control","second",30,"CSplus",15,0,0,90.38462
"pav",130,"control","second",31,"CSplus",16,0,0,90.38462
"pav",130,"control","second",32,"CSminus",16,0,0,70.05495
"pav",130,"control","second",33,"CSminus",17,0.7622346,1,70.05495
"pav",130,"control","second",34,"CSplus",17,0.7445321,1,90.38462
"pav",130,"control","second",35,"CSminus",18,0.7447444,1,70.05495
"pav",130,"control","second",36,"CSplus",18,0.7961503,1,90.38462
"pav",130,"control","second",37,"CSminus",19,0.9807897,1,70.05495
"pav",130,"control","second",38,"CSplus",19,0.8804122,1,90.38462
"pav",130,"control","second",39,"CSplus",20,0.7809523,1,90.38462
"pav",130,"control","second",40,"CSminus",20,0.9955703,1,70.05495
"pav",131,"control","second",1,"CSminus",1,0.2828209,1,60.71429
"pav",131,"control","second",2,"CSplus",1,0.3606949,1,79.94505
"pav",131,"control","second",3,"CSminus",2,0.4023248,1,60.71429
"pav",131,"control","second",4,"CSplus",2,0.4749303,1,79.94505
"pav",131,"control","second",5,"CSminus",3,0.4199274,1,60.71429
"pav",131,"control","second",6,"CSplus",3,0.4010412,1,79.94505
"pav",131,"control","second",7,"CSplus",4,0.4115414,1,79.94505
"pav",131,"control","second",8,"CSminus",4,0.3399814,1,60.71429
"pav",131,"control","second",9,"CSminus",5,0.4882611,1,60.71429
"pav",131,"control","second",10,"CSplus",5,0.5019443,1,79.94505
"pav",131,"control","second",11,"CSminus",6,0.3639914,1,60.71429
"pav",131,"control","second",12,"CSplus",6,0.3208435,1,79.94505
"pav",131,"control","second",13,"CSminus",7,0.3581553,1,60.71429
"pav",131,"control","second",14,"CSplus",7,0.3866193,1,79.94505
"pav",131,"control","second",15,"CSplus",8,0.4130652,1,79.94505
"pav",131,"control","second",16,"CSminus",8,0.373269,1,60.71429
"pav",131,"control","second",17,"CSminus",9,0.494737,1,60.71429
"pav",131,"control","second",18,"CSplus",9,0.3756601,1,79.94505
"pav",131,"control","second",19,"CSplus",10,0.4580446,1,79.94505
"pav",131,"control","second",20,"CSminus",10,0.3817595,1,60.71429
"pav",131,"control","second",21,"CSminus",11,0.3429325,1,60.71429
"pav",131,"control","second",22,"CSplus",11,0.6255315,1,79.94505
"pav",131,"control","second",23,"CSplus",12,0.3459805,1,79.94505
"pav",131,"control","second",24,"CSminus",12,0.5508719,1,60.71429
"pav",131,"control","second",25,"CSminus",13,0.3859246,1,60.71429
"pav",131,"control","second",26,"CSplus",13,0.375824,1,79.94505
"pav",131,"control","second",27,"CSminus",14,0.3901111,1,60.71429
"pav",131,"control","second",28,"CSplus",14,0.3123526,1,79.94505
"pav",131,"control","second",29,"CSminus",15,0.5875442,1,60.71429
"pav",131,"control","second",30,"CSplus",15,0.336639,1,79.94505
"pav",131,"control","second",31,"CSplus",16,0.3925853,1,79.94505
"pav",131,"control","second",32,"CSminus",16,0.338846,1,60.71429
"pav",131,"control","second",33,"CSminus",17,0.4120713,1,60.71429
"pav",131,"control","second",34,"CSplus",17,0.4471642,1,79.94505
"pav",131,"control","second",35,"CSplus",18,0.4746134,1,79.94505
"pav",131,"control","second",36,"CSminus",18,0.4128606,1,60.71429
"pav",131,"control","second",37,"CSminus",19,0.347121,1,60.71429
"pav",131,"control","second",38,"CSplus",19,0.4704352,1,79.94505
"pav",131,"control","second",39,"CSplus",20,0.3217191,1,79.94505
"pav",131,"control","second",40,"CSminus",20,0.3436205,1,60.71429
"pav",132,"control","second",1,"CSminus",1,0.6268824,1,50
"pav",132,"control","second",2,"CSplus",1,0.4676224,1,55.76923
"pav",132,"control","second",3,"CSminus",2,0.4098354,1,50
"pav",132,"control","second",4,"CSplus",2,0.4752447,1,55.76923
"pav",132,"control","second",5,"CSplus",3,0.4331738,1,55.76923
"pav",132,"control","second",6,"CSminus",3,0.4165343,1,50
"pav",132,"control","second",7,"CSplus",4,0.5085511,1,55.76923
"pav",132,"control","second",8,"CSminus",4,0.4813524,1,50
"pav",132,"control","second",9,"CSminus",5,0.4119892,1,50
"pav",132,"control","second",10,"CSplus",5,0.5306117,1,55.76923
"pav",132,"control","second",11,"CSminus",6,0.3767467,1,50
"pav",132,"control","second",12,"CSplus",6,0.413224,1,55.76923
"pav",132,"control","second",13,"CSminus",7,0.4384999,1,50
"pav",132,"control","second",14,"CSplus",7,0.9485781,1,55.76923
"pav",132,"control","second",15,"CSplus",8,0.4326789,1,55.76923
"pav",132,"control","second",16,"CSminus",8,0.5301418,1,50
"pav",132,"control","second",17,"CSplus",9,0.62909,1,55.76923
"pav",132,"control","second",18,"CSminus",9,0.4689262,0,50
"pav",132,"control","second",19,"CSminus",10,0.4619393,1,50
"pav",132,"control","second",20,"CSplus",10,0.5251765,1,55.76923
"pav",132,"control","second",21,"CSplus",11,0.7651006,1,55.76923
"pav",132,"control","second",22,"CSminus",11,0.7932801,1,50
"pav",132,"control","second",23,"CSminus",12,0.4459355,1,50
"pav",132,"control","second",24,"CSplus",12,0.7639905,1,55.76923
"pav",132,"control","second",25,"CSminus",13,0.4153909,1,50
"pav",132,"control","second",26,"CSplus",13,0.4395202,1,55.76923
"pav",132,"control","second",27,"CSplus",14,0.4004568,1,55.76923
"pav",132,"control","second",28,"CSminus",14,0.538674,1,50
"pav",132,"control","second",29,"CSplus",15,0.4153357,1,55.76923
"pav",132,"control","second",30,"CSminus",15,0.3777449,1,50
"pav",132,"control","second",31,"CSplus",16,0.5257317,1,55.76923
"pav",132,"control","second",32,"CSminus",16,0.5181761,1,50
"pav",132,"control","second",33,"CSplus",17,0.6895574,1,55.76923
"pav",132,"control","second",34,"CSminus",17,0.3564483,1,50
"pav",132,"control","second",35,"CSplus",18,0.4592284,1,55.76923
"pav",132,"control","second",36,"CSminus",18,0.4316355,1,50
"pav",132,"control","second",37,"CSminus",19,0.4270442,1,50
"pav",132,"control","second",38,"CSplus",19,0.596348,1,55.76923
"pav",132,"control","second",39,"CSminus",20,0.4263812,1,50
"pav",132,"control","second",40,"CSplus",20,0.422525,1,55.76923
"pav",133,"control","second",1,"CSplus",1,0.3323766,1,60.43956
"pav",133,"control","second",2,"CSminus",1,0.4903852,1,31.31868
"pav",133,"control","second",3,"CSminus",2,0.4611213,1,31.31868
"pav",133,"control","second",4,"CSplus",2,0.4769956,1,60.43956
"pav",133,"control","second",5,"CSminus",3,0.609828,1,31.31868
"pav",133,"control","second",6,"CSplus",3,0.5208699,1,60.43956
"pav",133,"control","second",7,"CSplus",4,0.7574343,1,60.43956
"pav",133,"control","second",8,"CSminus",4,0.3654974,1,31.31868
"pav",133,"control","second",9,"CSplus",5,0.5405058,1,60.43956
"pav",133,"control","second",10,"CSminus",5,0.7866525,1,31.31868
"pav",133,"control","second",11,"CSminus",6,0.5594518,1,31.31868
"pav",133,"control","second",12,"CSplus",6,0.3026581,1,60.43956
"pav",133,"control","second",13,"CSminus",7,0.6000684,1,31.31868
"pav",133,"control","second",14,"CSplus",7,0.4981123,1,60.43956
"pav",133,"control","second",15,"CSminus",8,0.8376316,1,31.31868
"pav",133,"control","second",16,"CSplus",8,0.3787189,1,60.43956
"pav",133,"control","second",17,"CSminus",9,0.6426816,1,31.31868
"pav",133,"control","second",18,"CSplus",9,0.4995547,1,60.43956
"pav",133,"control","second",19,"CSplus",10,0.5044183,1,60.43956
"pav",133,"control","second",20,"CSminus",10,0.6656317,1,31.31868
"pav",133,"control","second",21,"CSplus",11,0.4047961,1,60.43956
"pav",133,"control","second",22,"CSminus",11,0.6720697,1,31.31868
"pav",133,"control","second",23,"CSminus",12,0.5214043,1,31.31868
"pav",133,"control","second",24,"CSplus",12,0.4973416,1,60.43956
"pav",133,"control","second",25,"CSminus",13,0.7697809,1,31.31868
"pav",133,"control","second",26,"CSplus",13,0.4747428,1,60.43956
"pav",133,"control","second",27,"CSminus",14,0.3494315,1,31.31868
"pav",133,"control","second",28,"CSplus",14,0.4694722,1,60.43956
"pav",133,"control","second",29,"CSminus",15,0.4613413,1,31.31868
"pav",133,"control","second",30,"CSplus",15,0.6233386,1,60.43956
"pav",133,"control","second",31,"CSminus",16,0.573548,1,31.31868
"pav",133,"control","second",32,"CSplus",16,0.4253538,1,60.43956
"pav",133,"control","second",33,"CSplus",17,0.5082686,1,60.43956
"pav",133,"control","second",34,"CSminus",17,0,0,31.31868
"pav",133,"control","second",35,"CSplus",18,0.502735,1,60.43956
"pav",133,"control","second",36,"CSminus",18,0.4637862,1,31.31868
"pav",133,"control","second",37,"CSplus",19,0.3836476,1,60.43956
"pav",133,"control","second",38,"CSminus",19,0.5390372,1,31.31868
"pav",133,"control","second",39,"CSminus",20,0.5444656,1,31.31868
"pav",133,"control","second",40,"CSplus",20,0.5397877,1,60.43956
"pav",201,"obese","second",1,"CSminus",1,0.4917628,1,50
"pav",201,"obese","second",2,"CSplus",1,0.5374012,1,50
"pav",201,"obese","second",3,"CSminus",2,0.491842,1,50
"pav",201,"obese","second",4,"CSplus",2,0.5923769,1,50
"pav",201,"obese","second",5,"CSplus",3,0.7905769,1,50
"pav",201,"obese","second",6,"CSminus",3,0.565781,1,50
"pav",201,"obese","second",7,"CSminus",4,0.6882545,1,50
"pav",201,"obese","second",8,"CSplus",4,0,0,50
"pav",201,"obese","second",9,"CSminus",5,0.4774279,1,50
"pav",201,"obese","second",10,"CSplus",5,0.616405,1,50
"pav",201,"obese","second",11,"CSminus",6,0.3761023,1,50
"pav",201,"obese","second",12,"CSplus",6,0,0,50
"pav",201,"obese","second",13,"CSminus",7,0,0,50
"pav",201,"obese","second",14,"CSplus",7,0,0,50
"pav",201,"obese","second",15,"CSplus",8,0.911771,1,50
"pav",201,"obese","second",16,"CSminus",8,0.5811586,1,50
"pav",201,"obese","second",17,"CSplus",9,0.4780722,1,50
"pav",201,"obese","second",18,"CSminus",9,0.4773259,1,50
"pav",201,"obese","second",19,"CSplus",10,0.3352732,1,50
"pav",201,"obese","second",20,"CSminus",10,0.5164278,1,50
"pav",201,"obese","second",21,"CSminus",11,0.7495637,1,50
"pav",201,"obese","second",22,"CSplus",11,0.6562504,1,50
"pav",201,"obese","second",23,"CSplus",12,0,0,50
"pav",201,"obese","second",24,"CSminus",12,0,0,50
"pav",201,"obese","second",25,"CSplus",13,0,0,50
"pav",201,"obese","second",26,"CSminus",13,0,0,50
"pav",201,"obese","second",27,"CSplus",14,0,0,50
"pav",201,"obese","second",28,"CSminus",14,0.3422239,1,50
"pav",201,"obese","second",29,"CSminus",15,0,0,50
"pav",201,"obese","second",30,"CSplus",15,0.4998799,1,50
"pav",201,"obese","second",31,"CSminus",16,0.488905,1,50
"pav",201,"obese","second",32,"CSplus",16,0.7447723,1,50
"pav",201,"obese","second",33,"CSplus",17,0.6330466,1,50
"pav",201,"obese","second",34,"CSminus",17,0.928784,1,50
"pav",201,"obese","second",35,"CSminus",18,0.4192298,1,50
"pav",201,"obese","second",36,"CSplus",18,0,0,50
"pav",201,"obese","second",37,"CSplus",19,0.6425471,1,50
"pav",201,"obese","second",38,"CSminus",19,0,0,50
"pav",201,"obese","second",39,"CSplus",20,0,0,50
"pav",201,"obese","second",40,"CSminus",20,0,0,50
"pav",202,"obese","second",1,"CSminus",1,0.4098214,1,69.78022
"pav",202,"obese","second",2,"CSplus",1,0.4958224,1,63.46154
"pav",202,"obese","second",3,"CSplus",2,0.621906,1,63.46154
"pav",202,"obese","second",4,"CSminus",2,0.749007,1,69.78022
"pav",202,"obese","second",5,"CSminus",3,0.6502223,1,69.78022
"pav",202,"obese","second",6,"CSplus",3,0.6885518,1,63.46154
"pav",202,"obese","second",7,"CSminus",4,0.3901528,1,69.78022
"pav",202,"obese","second",8,"CSplus",4,0.5992051,1,63.46154
"pav",202,"obese","second",9,"CSminus",5,0.8288832,1,69.78022
"pav",202,"obese","second",10,"CSplus",5,0.67499,1,63.46154
"pav",202,"obese","second",11,"CSminus",6,0.9183864,1,69.78022
"pav",202,"obese","second",12,"CSplus",6,0.8513015,1,63.46154
"pav",202,"obese","second",13,"CSplus",7,0.8285426,1,63.46154
"pav",202,"obese","second",14,"CSminus",7,0,0,69.78022
"pav",202,"obese","second",15,"CSminus",8,0.5280328,1,69.78022
"pav",202,"obese","second",16,"CSplus",8,0.7256932,1,63.46154
"pav",202,"obese","second",17,"CSplus",9,0.7895813,1,63.46154
"pav",202,"obese","second",18,"CSminus",9,0.4650393,1,69.78022
"pav",202,"obese","second",19,"CSminus",10,0.6429009,1,69.78022
"pav",202,"obese","second",20,"CSplus",10,0.5879694,1,63.46154
"pav",202,"obese","second",21,"CSplus",11,0.661759,1,63.46154
"pav",202,"obese","second",22,"CSminus",11,0.6484211,1,69.78022
"pav",202,"obese","second",23,"CSplus",12,0,0,63.46154
"pav",202,"obese","second",24,"CSminus",12,0.4321126,1,69.78022
"pav",202,"obese","second",25,"CSplus",13,0.444107,1,63.46154
"pav",202,"obese","second",26,"CSminus",13,0.4438061,1,69.78022
"pav",202,"obese","second",27,"CSminus",14,0.4944894,1,69.78022
"pav",202,"obese","second",28,"CSplus",14,0.6505011,1,63.46154
"pav",202,"obese","second",29,"CSminus",15,0.6163146,1,69.78022
"pav",202,"obese","second",30,"CSplus",15,0.8702064,1,63.46154
"pav",202,"obese","second",31,"CSminus",16,0.7418651,1,69.78022
"pav",202,"obese","second",32,"CSplus",16,0.8749347,1,63.46154
"pav",202,"obese","second",33,"CSplus",17,0.4655435,1,63.46154
"pav",202,"obese","second",34,"CSminus",17,0.3844523,1,69.78022
"pav",202,"obese","second",35,"CSplus",18,0.9970181,1,63.46154
"pav",202,"obese","second",36,"CSminus",18,0.7491395,1,69.78022
"pav",202,"obese","second",37,"CSminus",19,0.5808589,1,69.78022
"pav",202,"obese","second",38,"CSplus",19,0.6010892,1,63.46154
"pav",202,"obese","second",39,"CSminus",20,0.568074,1,69.78022
"pav",202,"obese","second",40,"CSplus",20,0.8376605,1,63.46154
"pav",203,"obese","second",1,"CSminus",1,0.4199269,1,34.61538
"pav",203,"obese","second",2,"CSplus",1,0.6072598,1,73.07692
"pav",203,"obese","second",3,"CSplus",2,0.5067143,1,73.07692
"pav",203,"obese","second",4,"CSminus",2,0.5468755,1,34.61538
"pav",203,"obese","second",5,"CSplus",3,0.3359548,1,73.07692
"pav",203,"obese","second",6,"CSminus",3,0.4262322,1,34.61538
"pav",203,"obese","second",7,"CSminus",4,0.4707878,1,34.61538
"pav",203,"obese","second",8,"CSplus",4,0.3547247,1,73.07692
"pav",203,"obese","second",9,"CSplus",5,0.4041007,1,73.07692
"pav",203,"obese","second",10,"CSminus",5,0.5707323,1,34.61538
"pav",203,"obese","second",11,"CSminus",6,0.4428211,1,34.61538
"pav",203,"obese","second",12,"CSplus",6,0.3772812,1,73.07692
"pav",203,"obese","second",13,"CSminus",7,0.8158247,1,34.61538
"pav",203,"obese","second",14,"CSplus",7,0.5720974,1,73.07692
"pav",203,"obese","second",15,"CSminus",8,0.5006376,1,34.61538
"pav",203,"obese","second",16,"CSplus",8,0.3415825,1,73.07692
"pav",203,"obese","second",17,"CSminus",9,0.5651024,1,34.61538
"pav",203,"obese","second",18,"CSplus",9,0.3938759,1,73.07692
"pav",203,"obese","second",19,"CSminus",10,0.6052209,1,34.61538
"pav",203,"obese","second",20,"CSplus",10,0.3876581,1,73.07692
"pav",203,"obese","second",21,"CSplus",11,0.4355862,1,73.07692
"pav",203,"obese","second",22,"CSminus",11,0.8911952,1,34.61538
"pav",203,"obese","second",23,"CSminus",12,0.6530647,1,34.61538
"pav",203,"obese","second",24,"CSplus",12,0.3926972,1,73.07692
"pav",203,"obese","second",25,"CSplus",13,0.3768672,1,73.07692
"pav",203,"obese","second",26,"CSminus",13,0.3831629,1,34.61538
"pav",203,"obese","second",27,"CSplus",14,0.4157492,1,73.07692
"pav",203,"obese","second",28,"CSminus",14,0.4218269,1,34.61538
"pav",203,"obese","second",29,"CSplus",15,0.4748375,1,73.07692
"pav",203,"obese","second",30,"CSminus",15,0.4365363,1,34.61538
"pav",203,"obese","second",31,"CSplus",16,0.5059388,1,73.07692
"pav",203,"obese","second",32,"CSminus",16,0.8869027,1,34.61538
"pav",203,"obese","second",33,"CSplus",17,0.4502677,1,73.07692
"pav",203,"obese","second",34,"CSminus",17,0.5563751,1,34.61538
"pav",203,"obese","second",35,"CSplus",18,0,0,73.07692
"pav",203,"obese","second",36,"CSminus",18,0.4572457,1,34.61538
"pav",203,"obese","second",37,"CSplus",19,0.5370571,1,73.07692
"pav",203,"obese","second",38,"CSminus",19,0.4285297,1,34.61538
"pav",203,"obese","second",39,"CSminus",20,0.4093441,1,34.61538
"pav",203,"obese","second",40,"CSplus",20,0.4140102,1,73.07692
"pav",204,"obese","second",1,"CSminus",1,0.2994447,1,52.47253
"pav",204,"obese","second",2,"CSplus",1,0.2972705,1,59.89011
"pav",204,"obese","second",3,"CSplus",2,0.334274,1,59.89011
"pav",204,"obese","second",4,"CSminus",2,0.318859,1,52.47253
"pav",204,"obese","second",5,"CSminus",3,0.3942851,1,52.47253
"pav",204,"obese","second",6,"CSplus",3,0.328964,1,59.89011
"pav",204,"obese","second",7,"CSplus",4,0.3332499,1,59.89011
"pav",204,"obese","second",8,"CSminus",4,0.4232071,1,52.47253
"pav",204,"obese","second",9,"CSplus",5,0.2985512,1,59.89011
"pav",204,"obese","second",10,"CSminus",5,0.5466087,1,52.47253
"pav",204,"obese","second",11,"CSminus",6,0.2779444,1,52.47253
"pav",204,"obese","second",12,"CSplus",6,0.3048914,1,59.89011
"pav",204,"obese","second",13,"CSplus",7,0.307396,1,59.89011
"pav",204,"obese","second",14,"CSminus",7,0.3473631,1,52.47253
"pav",204,"obese","second",15,"CSminus",8,0.3325443,1,52.47253
"pav",204,"obese","second",16,"CSplus",8,0.3459599,1,59.89011
"pav",204,"obese","second",17,"CSminus",9,0.4326113,1,52.47253
"pav",204,"obese","second",18,"CSplus",9,0.3505936,1,59.89011
"pav",204,"obese","second",19,"CSplus",10,0.3837782,1,59.89011
"pav",204,"obese","second",20,"CSminus",10,0.5478586,1,52.47253
"pav",204,"obese","second",21,"CSminus",11,0.3280983,1,52.47253
"pav",204,"obese","second",22,"CSplus",11,0.3105777,1,59.89011
"pav",204,"obese","second",23,"CSminus",12,0.3908763,1,52.47253
"pav",204,"obese","second",24,"CSplus",12,0.3780249,1,59.89011
"pav",204,"obese","second",25,"CSplus",13,0.3475889,1,59.89011
"pav",204,"obese","second",26,"CSminus",13,0.3015545,1,52.47253
"pav",204,"obese","second",27,"CSplus",14,0.3593695,1,59.89011
"pav",204,"obese","second",28,"CSminus",14,0.4425499,1,52.47253
"pav",204,"obese","second",29,"CSplus",15,0.2731353,1,59.89011
"pav",204,"obese","second",30,"CSminus",15,0.3056583,1,52.47253
"pav",204,"obese","second",31,"CSminus",16,0.3758038,1,52.47253
"pav",204,"obese","second",32,"CSplus",16,0.3557843,1,59.89011
"pav",204,"obese","second",33,"CSminus",17,0.3924444,1,52.47253
"pav",204,"obese","second",34,"CSplus",17,0.3172832,1,59.89011
"pav",204,"obese","second",35,"CSplus",18,0.2272083,1,59.89011
"pav",204,"obese","second",36,"CSminus",18,0.3174106,1,52.47253
"pav",204,"obese","second",37,"CSplus",19,0.2756268,1,59.89011
"pav",204,"obese","second",38,"CSminus",19,0.3698888,1,52.47253
"pav",204,"obese","second",39,"CSplus",20,0.2810696,1,59.89011
"pav",204,"obese","second",40,"CSminus",20,0.4076134,1,52.47253
"pav",205,"obese","second",1,"CSminus",1,0.6493843,1,50
"pav",205,"obese","second",2,"CSplus",1,0.4916694,1,50
"pav",205,"obese","second",3,"CSplus",2,0.4577372,1,50
"pav",205,"obese","second",4,"CSminus",2,0.489424,1,50
"pav",205,"obese","second",5,"CSplus",3,0.823155,1,50
"pav",205,"obese","second",6,"CSminus",3,0,0,50
"pav",205,"obese","second",7,"CSminus",4,0.5066313,1,50
"pav",205,"obese","second",8,"CSplus",4,0.5567612,1,50
"pav",205,"obese","second",9,"CSplus",5,0,0,50
"pav",205,"obese","second",10,"CSminus",5,0,0,50
"pav",205,"obese","second",11,"CSminus",6,0.4938158,1,50
"pav",205,"obese","second",12,"CSplus",6,0.634825,1,50
"pav",205,"obese","second",13,"CSminus",7,0.7990696,1,50
"pav",205,"obese","second",14,"CSplus",7,0.9534861,1,50
"pav",205,"obese","second",15,"CSminus",8,0.4821004,1,50
"pav",205,"obese","second",16,"CSplus",8,0.5172386,1,50
"pav",205,"obese","second",17,"CSminus",9,0,0,50
"pav",205,"obese","second",18,"CSplus",9,0,0,50
"pav",205,"obese","second",19,"CSplus",10,0.5385827,1,50
"pav",205,"obese","second",20,"CSminus",10,0.6686029,1,50
"pav",205,"obese","second",21,"CSplus",11,0.6002317,1,50
"pav",205,"obese","second",22,"CSminus",11,0.737344,1,50
"pav",205,"obese","second",23,"CSplus",12,0.695055,1,50
"pav",205,"obese","second",24,"CSminus",12,0.6292872,1,50
"pav",205,"obese","second",25,"CSminus",13,0.7752071,1,50
"pav",205,"obese","second",26,"CSplus",13,0.5233748,1,50
"pav",205,"obese","second",27,"CSplus",14,0.4455151,1,50
"pav",205,"obese","second",28,"CSminus",14,0,0,50
"pav",205,"obese","second",29,"CSminus",15,0,0,50
"pav",205,"obese","second",30,"CSplus",15,0,0,50
"pav",205,"obese","second",31,"CSminus",16,0.8990927,1,50
"pav",205,"obese","second",32,"CSplus",16,0.5036286,1,50
"pav",205,"obese","second",33,"CSminus",17,0.0001494614,1,50
"pav",205,"obese","second",34,"CSplus",17,0,0,50
"pav",205,"obese","second",35,"CSplus",18,0.5325549,1,50
"pav",205,"obese","second",36,"CSminus",18,0,0,50
"pav",205,"obese","second",37,"CSminus",19,0,0,50
"pav",205,"obese","second",38,"CSplus",19,0,0,50
"pav",205,"obese","second",39,"CSminus",20,0.5341604,1,50
"pav",205,"obese","second",40,"CSplus",20,0.8733504,1,50
"pav",206,"obese","second",1,"CSminus",1,0.2957083,1,75.82418
"pav",206,"obese","second",2,"CSplus",1,0.3477747,1,71.7033
"pav",206,"obese","second",3,"CSminus",2,0.3723682,1,75.82418
"pav",206,"obese","second",4,"CSplus",2,0.4614723,1,71.7033
"pav",206,"obese","second",5,"CSplus",3,0.3241222,1,71.7033
"pav",206,"obese","second",6,"CSminus",3,0.390266,1,75.82418
"pav",206,"obese","second",7,"CSplus",4,0.3191511,1,71.7033
"pav",206,"obese","second",8,"CSminus",4,0.4275896,1,75.82418
"pav",206,"obese","second",9,"CSplus",5,0.3926702,1,71.7033
"pav",206,"obese","second",10,"CSminus",5,0.4020124,1,75.82418
"pav",206,"obese","second",11,"CSminus",6,0.4246889,1,75.82418
"pav",206,"obese","second",12,"CSplus",6,0.3529764,1,71.7033
"pav",206,"obese","second",13,"CSminus",7,0.4313438,1,75.82418
"pav",206,"obese","second",14,"CSplus",7,0.4704148,1,71.7033
"pav",206,"obese","second",15,"CSminus",8,0.2851974,1,75.82418
"pav",206,"obese","second",16,"CSplus",8,0.465904,1,71.7033
"pav",206,"obese","second",17,"CSplus",9,0.4674682,1,71.7033
"pav",206,"obese","second",18,"CSminus",9,0.4429157,1,75.82418
"pav",206,"obese","second",19,"CSminus",10,0.4824136,1,75.82418
"pav",206,"obese","second",20,"CSplus",10,0.4397119,1,71.7033
"pav",206,"obese","second",21,"CSminus",11,0.4834076,1,75.82418
"pav",206,"obese","second",22,"CSplus",11,0.417743,1,71.7033
"pav",206,"obese","second",23,"CSminus",12,0.5431723,1,75.82418
"pav",206,"obese","second",24,"CSplus",12,0.4895581,1,71.7033
"pav",206,"obese","second",25,"CSminus",13,0.441467,1,75.82418
"pav",206,"obese","second",26,"CSplus",13,0.6367081,1,71.7033
"pav",206,"obese","second",27,"CSminus",14,0.5534067,1,75.82418
"pav",206,"obese","second",28,"CSplus",14,0.5027821,1,71.7033
"pav",206,"obese","second",29,"CSplus",15,0.5785609,1,71.7033
"pav",206,"obese","second",30,"CSminus",15,0.6992016,1,75.82418
"pav",206,"obese","second",31,"CSplus",16,0.5645696,1,71.7033
"pav",206,"obese","second",32,"CSminus",16,0,0,75.82418
"pav",206,"obese","second",33,"CSminus",17,0.44734,1,75.82418
"pav",206,"obese","second",34,"CSplus",17,0.4648497,1,71.7033
"pav",206,"obese","second",35,"CSminus",18,0.7678741,1,75.82418
"pav",206,"obese","second",36,"CSplus",18,0.4953785,1,71.7033
"pav",206,"obese","second",37,"CSplus",19,0,0,71.7033
"pav",206,"obese","second",38,"CSminus",19,0.4477217,1,75.82418
"pav",206,"obese","second",39,"CSminus",20,0.5153662,1,75.82418
"pav",206,"obese","second",40,"CSplus",20,0,0,71.7033
"pav",207,"obese","second",1,"CSminus",1,0.2705242,1,32.41758
"pav",207,"obese","second",2,"CSplus",1,0.4321352,1,29.3956
"pav",207,"obese","second",3,"CSminus",2,0.3850503,1,32.41758
"pav",207,"obese","second",4,"CSplus",2,0.4093485,1,29.3956
"pav",207,"obese","second",5,"CSminus",3,0.3496333,1,32.41758
"pav",207,"obese","second",6,"CSplus",3,0.5668439,1,29.3956
"pav",207,"obese","second",7,"CSplus",4,0.2636406,1,29.3956
"pav",207,"obese","second",8,"CSminus",4,0.2836243,1,32.41758
"pav",207,"obese","second",9,"CSplus",5,0.4557577,1,29.3956
"pav",207,"obese","second",10,"CSminus",5,0.3119742,1,32.41758
"pav",207,"obese","second",11,"CSplus",6,0.3285758,1,29.3956
"pav",207,"obese","second",12,"CSminus",6,0.4824333,1,32.41758
"pav",207,"obese","second",13,"CSplus",7,0.2561225,1,29.3956
"pav",207,"obese","second",14,"CSminus",7,0.2563201,1,32.41758
"pav",207,"obese","second",15,"CSminus",8,0.4269589,1,32.41758
"pav",207,"obese","second",16,"CSplus",8,0.3399253,1,29.3956
"pav",207,"obese","second",17,"CSminus",9,0.3923444,1,32.41758
"pav",207,"obese","second",18,"CSplus",9,0.5341818,1,29.3956
"pav",207,"obese","second",19,"CSplus",10,0.325997,1,29.3956
"pav",207,"obese","second",20,"CSminus",10,0.5102664,1,32.41758
"pav",207,"obese","second",21,"CSplus",11,0.3593487,1,29.3956
"pav",207,"obese","second",22,"CSminus",11,0.317249,1,32.41758
"pav",207,"obese","second",23,"CSplus",12,0.285594,1,29.3956
"pav",207,"obese","second",24,"CSminus",12,0.2846863,1,32.41758
"pav",207,"obese","second",25,"CSplus",13,0.6164983,1,29.3956
"pav",207,"obese","second",26,"CSminus",13,0.5638303,1,32.41758
"pav",207,"obese","second",27,"CSplus",14,0.3239892,1,29.3956
"pav",207,"obese","second",28,"CSminus",14,0.3637659,1,32.41758
"pav",207,"obese","second",29,"CSminus",15,0.4212087,1,32.41758
"pav",207,"obese","second",30,"CSplus",15,0.7235595,1,29.3956
"pav",207,"obese","second",31,"CSplus",16,0.4010697,1,29.3956
"pav",207,"obese","second",32,"CSminus",16,0.9183888,1,32.41758
"pav",207,"obese","second",33,"CSminus",17,0.8247321,1,32.41758
"pav",207,"obese","second",34,"CSplus",17,0.4912786,1,29.3956
"pav",207,"obese","second",35,"CSplus",18,0.3291059,1,29.3956
"pav",207,"obese","second",36,"CSminus",18,0.5979501,1,32.41758
"pav",207,"obese","second",37,"CSminus",19,0.3280263,1,32.41758
"pav",207,"obese","second",38,"CSplus",19,0,0,29.3956
"pav",207,"obese","second",39,"CSminus",20,0.3056197,1,32.41758
"pav",207,"obese","second",40,"CSplus",20,0.3152495,1,29.3956
"pav",208,"obese","second",1,"CSminus",1,0.3213095,1,72.25275
"pav",208,"obese","second",2,"CSplus",1,0.3536122,1,91.75824
"pav",208,"obese","second",3,"CSplus",2,0.4300937,1,91.75824
"pav",208,"obese","second",4,"CSminus",2,0.3968015,1,72.25275
"pav",208,"obese","second",5,"CSplus",3,0.5066522,1,91.75824
"pav",208,"obese","second",6,"CSminus",3,0.2823621,1,72.25275
"pav",208,"obese","second",7,"CSplus",4,0.4257137,1,91.75824
"pav",208,"obese","second",8,"CSminus",4,0.298394,1,72.25275
"pav",208,"obese","second",9,"CSminus",5,0.3473261,1,72.25275
"pav",208,"obese","second",10,"CSplus",5,0.4625766,1,91.75824
"pav",208,"obese","second",11,"CSplus",6,0.3003431,1,91.75824
"pav",208,"obese","second",12,"CSminus",6,0.3976351,1,72.25275
"pav",208,"obese","second",13,"CSminus",7,0.3531981,1,72.25275
"pav",208,"obese","second",14,"CSplus",7,0.4912938,1,91.75824
"pav",208,"obese","second",15,"CSplus",8,0.3742764,1,91.75824
"pav",208,"obese","second",16,"CSminus",8,0.5160657,1,72.25275
"pav",208,"obese","second",17,"CSminus",9,0.4651986,1,72.25275
"pav",208,"obese","second",18,"CSplus",9,0.5800867,1,91.75824
"pav",208,"obese","second",19,"CSminus",10,0.4983805,1,72.25275
"pav",208,"obese","second",20,"CSplus",10,0.5509817,1,91.75824
"pav",208,"obese","second",21,"CSplus",11,0.3663318,1,91.75824
"pav",208,"obese","second",22,"CSminus",11,0.4141125,1,72.25275
"pav",208,"obese","second",23,"CSplus",12,0.3422662,1,91.75824
"pav",208,"obese","second",24,"CSminus",12,0.5331538,1,72.25275
"pav",208,"obese","second",25,"CSplus",13,0.5480458,1,91.75824
"pav",208,"obese","second",26,"CSminus",13,0.5125578,1,72.25275
"pav",208,"obese","second",27,"CSplus",14,0.5910642,1,91.75824
"pav",208,"obese","second",28,"CSminus",14,0.4036989,1,72.25275
"pav",208,"obese","second",29,"CSplus",15,0.5907874,1,91.75824
"pav",208,"obese","second",30,"CSminus",15,0.6594642,1,72.25275
"pav",208,"obese","second",31,"CSplus",16,0.4226979,1,91.75824
"pav",208,"obese","second",32,"CSminus",16,0.3683595,1,72.25275
"pav",208,"obese","second",33,"CSminus",17,0.5160378,1,72.25275
"pav",208,"obese","second",34,"CSplus",17,0.3737119,1,91.75824
"pav",208,"obese","second",35,"CSplus",18,0.4609495,1,91.75824
"pav",208,"obese","second",36,"CSminus",18,0.6229512,1,72.25275
"pav",208,"obese","second",37,"CSminus",19,0.416839,1,72.25275
"pav",208,"obese","second",38,"CSplus",19,0.4506973,1,91.75824
"pav",208,"obese","second",39,"CSminus",20,0.544468,1,72.25275
"pav",208,"obese","second",40,"CSplus",20,0.5483229,1,91.75824
"pav",209,"obese","second",1,"CSplus",1,0.4345312,1,81.59341
"pav",209,"obese","second",2,"CSminus",1,0.3834796,1,23.07692
"pav",209,"obese","second",3,"CSplus",2,0.3752242,1,81.59341
"pav",209,"obese","second",4,"CSminus",2,0.5070983,1,23.07692
"pav",209,"obese","second",5,"CSplus",3,0.396154,1,81.59341
"pav",209,"obese","second",6,"CSminus",3,0.6895381,1,23.07692
"pav",209,"obese","second",7,"CSminus",4,0.3318201,1,23.07692
"pav",209,"obese","second",8,"CSplus",4,0.4697278,1,81.59341
"pav",209,"obese","second",9,"CSplus",5,0.3702285,1,81.59341
"pav",209,"obese","second",10,"CSminus",5,0.4689311,1,23.07692
"pav",209,"obese","second",11,"CSplus",6,0.3847067,1,81.59341
"pav",209,"obese","second",12,"CSminus",6,0.7382481,1,23.07692
"pav",209,"obese","second",13,"CSplus",7,0.5153033,1,81.59341
"pav",209,"obese","second",14,"CSminus",7,0.3639768,1,23.07692
"pav",209,"obese","second",15,"CSminus",8,0.5391898,1,23.07692
"pav",209,"obese","second",16,"CSplus",8,0.6788462,1,81.59341
"pav",209,"obese","second",17,"CSminus",9,0.4634116,1,23.07692
"pav",209,"obese","second",18,"CSplus",9,0.4543823,1,81.59341
"pav",209,"obese","second",19,"CSplus",10,0.6595788,1,81.59341
"pav",209,"obese","second",20,"CSminus",10,0.6693509,1,23.07692
"pav",209,"obese","second",21,"CSminus",11,0.4125562,1,23.07692
"pav",209,"obese","second",22,"CSplus",11,0.3634601,1,81.59341
"pav",209,"obese","second",23,"CSminus",12,0.7618338,1,23.07692
"pav",209,"obese","second",24,"CSplus",12,0.6531536,1,81.59341
"pav",209,"obese","second",25,"CSminus",13,0.8724112,1,23.07692
"pav",209,"obese","second",26,"CSplus",13,0.3533968,1,81.59341
"pav",209,"obese","second",27,"CSminus",14,0.5267166,1,23.07692
"pav",209,"obese","second",28,"CSplus",14,0.8778797,1,81.59341
"pav",209,"obese","second",29,"CSminus",15,0.6778625,1,23.07692
"pav",209,"obese","second",30,"CSplus",15,0.7153167,1,81.59341
"pav",209,"obese","second",31,"CSplus",16,0.4711175,1,81.59341
"pav",209,"obese","second",32,"CSminus",16,0.5452491,1,23.07692
"pav",209,"obese","second",33,"CSplus",17,0.3692849,1,81.59341
"pav",209,"obese","second",34,"CSminus",17,0.4757605,1,23.07692
"pav",209,"obese","second",35,"CSplus",18,0.3674744,1,81.59341
"pav",209,"obese","second",36,"CSminus",18,0.5536456,1,23.07692
"pav",209,"obese","second",37,"CSminus",19,0.3821854,1,23.07692
"pav",209,"obese","second",38,"CSplus",19,0.6529207,1,81.59341
"pav",209,"obese","second",39,"CSplus",20,0.6385965,1,81.59341
"pav",209,"obese","second",40,"CSminus",20,0,0,23.07692
"pav",210,"obese","second",1,"CSplus",1,0.3981151,1,60.98901
"pav",210,"obese","second",2,"CSminus",1,0.4976105,1,29.94505
"pav",210,"obese","second",3,"CSplus",2,0.5259868,1,60.98901
"pav",210,"obese","second",4,"CSminus",2,0.6470095,1,29.94505
"pav",210,"obese","second",5,"CSminus",3,0.4113606,1,29.94505
"pav",210,"obese","second",6,"CSplus",3,0.5106716,1,60.98901
"pav",210,"obese","second",7,"CSminus",4,0.4876362,1,29.94505
"pav",210,"obese","second",8,"CSplus",4,0.4543269,1,60.98901
"pav",210,"obese","second",9,"CSplus",5,0.4004299,1,60.98901
"pav",210,"obese","second",10,"CSminus",5,0.5560412,1,29.94505
"pav",210,"obese","second",11,"CSplus",6,0.4312463,1,60.98901
"pav",210,"obese","second",12,"CSminus",6,0.4470715,1,29.94505
"pav",210,"obese","second",13,"CSminus",7,0.4895917,1,29.94505
"pav",210,"obese","second",14,"CSplus",7,0.4804235,1,60.98901
"pav",210,"obese","second",15,"CSminus",8,0.5307684,1,29.94505
"pav",210,"obese","second",16,"CSplus",8,0.6223464,1,60.98901
"pav",210,"obese","second",17,"CSminus",9,0.5008528,1,29.94505
"pav",210,"obese","second",18,"CSplus",9,0.501739,1,60.98901
"pav",210,"obese","second",19,"CSminus",10,0.4974165,1,29.94505
"pav",210,"obese","second",20,"CSplus",10,0.5581388,1,60.98901
"pav",210,"obese","second",21,"CSplus",11,0.5039759,1,60.98901
"pav",210,"obese","second",22,"CSminus",11,0.5050398,1,29.94505
"pav",210,"obese","second",23,"CSplus",12,0.5992369,1,60.98901
"pav",210,"obese","second",24,"CSminus",12,0,0,29.94505
"pav",210,"obese","second",25,"CSminus",13,0.433352,1,29.94505
"pav",210,"obese","second",26,"CSplus",13,0.4119905,1,60.98901
"pav",210,"obese","second",27,"CSminus",14,0.5073507,1,29.94505
"pav",210,"obese","second",28,"CSplus",14,0.4520234,1,60.98901
"pav",210,"obese","second",29,"CSplus",15,0.5423213,1,60.98901
"pav",210,"obese","second",30,"CSminus",15,0.518835,1,29.94505
"pav",210,"obese","second",31,"CSminus",16,0.4919944,1,29.94505
"pav",210,"obese","second",32,"CSplus",16,0,0,60.98901
"pav",210,"obese","second",33,"CSplus",17,0.4266245,1,60.98901
"pav",210,"obese","second",34,"CSminus",17,0.5019831,1,29.94505
"pav",210,"obese","second",35,"CSplus",18,0.5035021,1,60.98901
"pav",210,"obese","second",36,"CSminus",18,0.7156272,1,29.94505
"pav",210,"obese","second",37,"CSminus",19,0.4694282,1,29.94505
"pav",210,"obese","second",38,"CSplus",19,0.5181528,1,60.98901
"pav",210,"obese","second",39,"CSplus",20,0.5047867,1,60.98901
"pav",210,"obese","second",40,"CSminus",20,0.4766734,1,29.94505
"pav",211,"obese","second",1,"CSplus",1,0.3659601,1,50
"pav",211,"obese","second",2,"CSminus",1,0.3272761,1,49.72527
"pav",211,"obese","second",3,"CSplus",2,0.409082,1,50
"pav",211,"obese","second",4,"CSminus",2,0.4605527,1,49.72527
"pav",211,"obese","second",5,"CSminus",3,0.4617099,1,49.72527
"pav",211,"obese","second",6,"CSplus",3,0.4267109,1,50
"pav",211,"obese","second",7,"CSplus",4,0.4140608,1,50
"pav",211,"obese","second",8,"CSminus",4,0.5446038,1,49.72527
"pav",211,"obese","second",9,"CSplus",5,0.432386,1,50
"pav",211,"obese","second",10,"CSminus",5,0.4626927,1,49.72527
"pav",211,"obese","second",11,"CSplus",6,0.4683068,1,50
"pav",211,"obese","second",12,"CSminus",6,0.4367224,1,49.72527
"pav",211,"obese","second",13,"CSplus",7,0.4195601,1,50
"pav",211,"obese","second",14,"CSminus",7,0.3673412,1,49.72527
"pav",211,"obese","second",15,"CSplus",8,0.4514114,1,50
"pav",211,"obese","second",16,"CSminus",8,0.3997621,1,49.72527
"pav",211,"obese","second",17,"CSminus",9,0.4003195,1,49.72527
"pav",211,"obese","second",18,"CSplus",9,0.3670547,1,50
"pav",211,"obese","second",19,"CSplus",10,0.4247086,1,50
"pav",211,"obese","second",20,"CSminus",10,0.4262225,1,49.72527
"pav",211,"obese","second",21,"CSplus",11,0.4531386,1,50
"pav",211,"obese","second",22,"CSminus",11,0.5859969,1,49.72527
"pav",211,"obese","second",23,"CSminus",12,0.3719004,1,49.72527
"pav",211,"obese","second",24,"CSplus",12,0.534703,1,50
"pav",211,"obese","second",25,"CSplus",13,0.4802998,1,50
"pav",211,"obese","second",26,"CSminus",13,0.9058079,1,49.72527
"pav",211,"obese","second",27,"CSplus",14,0.5328921,1,50
"pav",211,"obese","second",28,"CSminus",14,0.4633329,1,49.72527
"pav",211,"obese","second",29,"CSplus",15,0.5358265,1,50
"pav",211,"obese","second",30,"CSminus",15,0.522813,1,49.72527
